{
  "resourceType": "Bundle",
  "identifier": {
    "type": {
      "text": "ClinicalDocument VersionNumber"
    },
    "value": "1"
  },
  "type": "message",
  "entry": [ {
    "fullUrl": "urn:uuid:7AEFFED7-78AF-4940-9EE2-5FAA3920ECFE",
    "resource": {
      "resourceType": "MessageHeader",
      "id": "7AEFFED7-78AF-4940-9EE2-5FAA3920ECFE",
      "event": {
        "system": "https://fhir.nhs.uk/STU3/CodeSystem/EventType-1",
        "code": "referral-1",
        "display": "Referral"
      },
      "destination": [ {
        "endpoint": "urn:nhs-uk:addressing:ods:RSHSO14A:DOSServiceID:2000006423"
      } ],
      "timestamp": "2021-04-06T11:33:35.000+00:00",
      "source": {
        "name": "NHS 111 Adaptor",
        "endpoint": "http://localhost:8080/report"
      },
      "reason": {
        "coding": [ {
          "system": "urn:nhs-itk:ns:201005:interaction",
          "code": "urn:nhs-itk:interaction:primaryEmergencyDepartmentRecipientNHS111CDADocument-v2-0"
        } ]
      }
    }
  }, {
    "fullUrl": "urn:uuid:115bf9ad-dc46-4f52-be5a-452f6f061744",
    "resource": {
      "resourceType": "Encounter",
      "id": "115bf9ad-dc46-4f52-be5a-452f6f061744",
      "identifier": [ {
        "system": "2.16.840.1.113883.2.1.3.2.4.18.34",
        "value": "029EE79C-BBD3-478A-93EE-979CB300212E"
      }, {
        "system": "2.16.840.1.113883.2.1.3.2.4.18.35",
        "value": "59132"
      }, {
        "system": "2.16.840.1.113883.2.1.3.2.4.18.49",
        "value": "029EE79C-BBD3-478A-93EE-979CB300212E"
      } ],
      "status": "finished",
      "type": [ {
        "text": "111 Encounter Referral"
      } ],
      "subject": {
        "reference": "urn:uuid:6bbb8eb5-eeca-4d0c-a341-e468a60376cb"
      },
      "participant": [ {
        "type": [ {
          "coding": [ {
            "system": "http://hl7.org/fhir/ValueSet/encounter-participant-type",
            "code": "PPRF",
            "display": "Author"
          } ]
        } ],
        "individual": {
          "reference": "urn:uuid:d2e9082a-1815-49d8-8aeb-18dd97dfed30"
        }
      }, {
        "type": [ {
          "coding": [ {
            "system": "http://hl7.org/fhir/ValueSet/encounter-participant-type",
            "code": "ATND",
            "display": "Responsible Party"
          } ]
        } ],
        "individual": {
          "reference": "urn:uuid:eff322fb-cb86-4d9a-9925-2fedf754d7ff"
        }
      } ],
      "period": {
        "start": "2021-04-06T11:33:35+00:00"
      },
      "location": [ {
        "location": {
          "reference": "urn:uuid:a002acf4-28dd-48df-804a-25122e4716fd"
        },
        "status": "active"
      }, {
        "location": {
          "reference": "urn:uuid:5e8095c3-8b87-4ecf-9170-35181adc9023"
        },
        "status": "completed"
      } ],
      "serviceProvider": {
        "reference": "urn:uuid:b299c99b-f103-4e5d-bf01-62efe7a5a5ed"
      }
    }
  }, {
    "fullUrl": "urn:uuid:b299c99b-f103-4e5d-bf01-62efe7a5a5ed",
    "resource": {
      "resourceType": "Organization",
      "id": "b299c99b-f103-4e5d-bf01-62efe7a5a5ed",
      "active": true,
      "type": [ {
        "text": "CST"
      } ],
      "name": "SCAS111"
    }
  }, {
    "fullUrl": "urn:uuid:d2e9082a-1815-49d8-8aeb-18dd97dfed30",
    "resource": {
      "resourceType": "Practitioner",
      "id": "d2e9082a-1815-49d8-8aeb-18dd97dfed30",
      "active": true,
      "name": [ {
        "use": "official",
        "family": "McDonald",
        "given": [ "Denzle" ]
      } ]
    }
  }, {
    "fullUrl": "urn:uuid:eff322fb-cb86-4d9a-9925-2fedf754d7ff",
    "resource": {
      "resourceType": "Practitioner",
      "id": "eff322fb-cb86-4d9a-9925-2fedf754d7ff",
      "active": true,
      "name": [ {
        "use": "official",
        "family": "Black",
        "given": [ "John" ]
      } ]
    }
  }, {
    "fullUrl": "urn:uuid:a002acf4-28dd-48df-804a-25122e4716fd",
    "resource": {
      "resourceType": "Location",
      "id": "a002acf4-28dd-48df-804a-25122e4716fd",
      "managingOrganization": {
        "reference": "urn:uuid:df28781c-1edd-4b17-82a2-aa13f5cb418d"
      }
    }
  }, {
    "fullUrl": "urn:uuid:df28781c-1edd-4b17-82a2-aa13f5cb418d",
    "resource": {
      "resourceType": "Organization",
      "id": "df28781c-1edd-4b17-82a2-aa13f5cb418d",
      "identifier": [ {
        "value": "J82633"
      } ],
      "type": [ {
        "text": "GP Practice"
      } ],
      "name": "The Riverside Partnership ( Riverside Kelsey)",
      "telecom": [ {
        "system": "phone",
        "value": "tel:01730892412",
        "use": "work"
      } ],
      "address": [ {
        "use": "work",
        "line": [ "Riverside Kelsey Surgery", "75 Station Road", "Liss", "Hampshire" ],
        "postalCode": "GU33 7AD"
      } ]
    }
  }, {
    "fullUrl": "urn:uuid:5e8095c3-8b87-4ecf-9170-35181adc9023",
    "resource": {
      "resourceType": "Location",
      "id": "5e8095c3-8b87-4ecf-9170-35181adc9023",
      "name": "Incident Location",
      "address": {
        "type": "physical",
        "line": [ "Hampshire Partnership NHS Trust", "Tatchbury Mount Hospital Horseshoe Drive", "Calmore", "Southampton", "Hampshire" ],
        "postalCode": "SO40 2RZ"
      }
    }
  }, {
    "fullUrl": "urn:uuid:6bbb8eb5-eeca-4d0c-a341-e468a60376cb",
    "resource": {
      "resourceType": "Patient",
      "id": "6bbb8eb5-eeca-4d0c-a341-e468a60376cb",
      "identifier": [ {
        "extension": [ {
          "url": "https://fhir.hl7.org.uk/STU3/StructureDefinition/Extension-CareConnect-NHSNumberVerificationStatus-1",
          "valueCodeableConcept": {
            "coding": [ {
              "system": "https://fhir.hl7.org.uk/STU3/StructureDefinition/Extension-CareConnect-NHSNumberVerificationStatus-1",
              "code": "01"
            } ]
          }
        } ],
        "system": "https://fhir.nhs.uk/Id/nhs-number",
        "value": "9990004951"
      } ],
      "active": true,
      "name": [ {
        "use": "official",
        "family": "Xxtestpatientdfae",
        "given": [ "Btl-Donotuse" ]
      } ],
      "telecom": [ {
        "system": "phone",
        "value": "tel:07948625625",
        "use": "home"
      }, {
        "system": "phone",
        "value": "tel:07948625625"
      } ],
      "gender": "female",
      "birthDate": "2015-04-01",
      "address": [ {
        "use": "home",
        "line": [ "Hampshire Partnership NHS Trust", "Tatchbury Mount Hospital Horseshoe Drive", "Calmore", "Southampton", "Hampshire" ],
        "postalCode": "SO40 2RZ"
      } ],
      "generalPractitioner": [ {
        "reference": "urn:uuid:27be2e1c-b933-4d6f-bb5a-9d2c901cd780"
      } ]
    }
  }, {
    "fullUrl": "urn:uuid:27be2e1c-b933-4d6f-bb5a-9d2c901cd780",
    "resource": {
      "resourceType": "Organization",
      "id": "27be2e1c-b933-4d6f-bb5a-9d2c901cd780",
      "identifier": [ {
        "value": "J82633"
      } ],
      "type": [ {
        "text": "GP Practice"
      } ],
      "name": "The Riverside Partnership ( Riverside Kelsey)",
      "telecom": [ {
        "system": "phone",
        "value": "tel:01730892412",
        "use": "work"
      } ],
      "address": [ {
        "use": "work",
        "line": [ "Riverside Kelsey Surgery", "75 Station Road", "Liss", "Hampshire" ],
        "postalCode": "GU33 7AD"
      } ]
    }
  }, {
    "fullUrl": "urn:uuid:efdfe0d9-131e-45d8-b37b-cd47a60a5d62",
    "resource": {
      "resourceType": "HealthcareService",
      "id": "efdfe0d9-131e-45d8-b37b-cd47a60a5d62",
      "active": true,
      "providedBy": {
        "reference": "urn:uuid:bb89fbd0-4b90-47bc-b28c-f4cd39aaa579"
      },
      "location": [ {
        "reference": "urn:uuid:f8501d37-a4ae-4251-8739-529307f1008d"
      } ],
      "name": "Urgent Treatment Centre (GP led), Royal South Hants Hospital"
    }
  }, {
    "fullUrl": "urn:uuid:f8501d37-a4ae-4251-8739-529307f1008d",
    "resource": {
      "resourceType": "Location",
      "id": "f8501d37-a4ae-4251-8739-529307f1008d",
      "managingOrganization": {
        "reference": "urn:uuid:bb89fbd0-4b90-47bc-b28c-f4cd39aaa579"
      }
    }
  }, {
    "fullUrl": "urn:uuid:bb89fbd0-4b90-47bc-b28c-f4cd39aaa579",
    "resource": {
      "resourceType": "Organization",
      "id": "bb89fbd0-4b90-47bc-b28c-f4cd39aaa579",
      "identifier": [ {
        "value": "RSHSO14A"
      } ],
      "type": [ {
        "coding": [ {
          "code": "PRCP",
          "display": "Urgent Treatment Centre (GP led), Royal South Hants Hospital"
        } ]
      } ],
      "name": "Urgent Treatment Centre (GP led), Royal South Hants Hospital"
    }
  }, {
    "fullUrl": "urn:uuid:0dddb293-e591-4b77-ab79-9ad83deab41d",
    "resource": {
      "resourceType": "ReferralRequest",
      "id": "0dddb293-e591-4b77-ab79-9ad83deab41d",
      "status": "active",
      "intent": "plan",
      "priority": "routine",
      "subject": {
        "reference": "urn:uuid:6bbb8eb5-eeca-4d0c-a341-e468a60376cb"
      },
      "context": {
        "reference": "urn:uuid:115bf9ad-dc46-4f52-be5a-452f6f061744"
      },
      "occurrencePeriod": {
        "start": "2021-10-01T07:33:59+00:00",
        "end": "2021-10-01T08:33:59+00:00"
      },
      "authoredOn": "2021-04-06T11:33:27+00:00",
      "requester": {
        "agent": {
          "reference": "urn:uuid:273b16aa-c3af-4bf6-8516-21122d981327"
        },
        "onBehalfOf": {
          "reference": "urn:uuid:b299c99b-f103-4e5d-bf01-62efe7a5a5ed"
        }
      },
      "recipient": [ {
        "reference": "urn:uuid:efdfe0d9-131e-45d8-b37b-cd47a60a5d62"
      } ],
      "reasonReference": [ {
        "reference": "urn:uuid:9740f035-496d-41d6-aa44-10ee7a98afb9"
      } ],
      "supportingInfo": [ {
        "reference": "urn:uuid:6c3b9f2b-76cf-49bd-9848-4479e9f64837"
      } ]
    }
  }, {
    "fullUrl": "urn:uuid:6c3b9f2b-76cf-49bd-9848-4479e9f64837",
    "resource": {
      "resourceType": "ProcedureRequest",
      "id": "6c3b9f2b-76cf-49bd-9848-4479e9f64837",
      "status": "active",
      "intent": "plan",
      "priority": "routine",
      "doNotPerform": false,
      "code": {
        "coding": [ {
          "system": "2.16.840.1.113883.2.1.3.2.4.17.325",
          "code": "Dx06",
          "display": "To contact a local service within 6 hours"
        } ]
      },
      "subject": {
        "reference": "urn:uuid:6bbb8eb5-eeca-4d0c-a341-e468a60376cb"
      },
      "occurrencePeriod": {
        "start": "2021-10-01T07:33:59+00:00",
        "end": "2021-10-01T08:33:59+00:00"
      },
      "reasonReference": [ {
        "reference": "urn:uuid:9740f035-496d-41d6-aa44-10ee7a98afb9"
      } ]
    }
  }, {
    "fullUrl": "urn:uuid:9d88951d-6dca-498f-b4cb-38984a8434d0",
    "resource": {
      "resourceType": "Composition",
      "id": "9d88951d-6dca-498f-b4cb-38984a8434d0",
      "identifier": {
        "use": "usual",
        "value": "A8E3FB32-6805-4191-B071-EA540A9318CD"
      },
      "status": "final",
      "type": {
        "coding": [ {
          "system": "http://snomed.info/sct",
          "code": "371531000",
          "display": "Report of clinical encounter (record artifact)"
        } ]
      },
      "subject": {
        "reference": "urn:uuid:6bbb8eb5-eeca-4d0c-a341-e468a60376cb"
      },
      "encounter": {
        "reference": "urn:uuid:115bf9ad-dc46-4f52-be5a-452f6f061744"
      },
      "date": "2021-10-01T07:33:59+00:00",
      "author": [ {
        "reference": "urn:uuid:d2e9082a-1815-49d8-8aeb-18dd97dfed30"
      } ],
      "title": "111 Report",
      "confidentiality": "N",
      "section": [ {
        "section": [ {
          "title": "Patient's Reported Condition",
          "text": {
            "status": "generated",
            "div": "<div xmlns=\"http://www.w3.org/1999/xhtml\">&lt;content&gt;Pharmacy ITK Testing&lt;/content&gt;\n                                                    &lt;br/&gt;</div>"
          }
        }, {
          "title": "Pathways Disposition",
          "text": {
            "status": "generated",
            "div": "<div xmlns=\"http://www.w3.org/1999/xhtml\">To contact a local service within 6 hours (Dx06)                                         &lt;br/&gt;\n                                                    &lt;br/&gt;                                         Selected service: Urgent Treatment Centre (GP led), Royal South Hant&lt;br/&gt;</div>"
          }
        }, {
          "title": "Consultation Summary",
          "text": {
            "status": "generated",
            "div": "<div xmlns=\"http://www.w3.org/1999/xhtml\">Illness&lt;br/&gt;Warm to touch&lt;br/&gt;Nausea without vomiting&lt;br/&gt;Abdominal pain also present&lt;br/&gt;Moderately severe pain&lt;br/&gt;Flank pain&lt;br/&gt;Fever at time of assessment or in last 12 hours&lt;br/&gt;</div>"
          }
        }, {
          "title": "Pathways Assessment",
          "text": {
            "status": "generated",
            "div": "<div xmlns=\"http://www.w3.org/1999/xhtml\">An injury or health problem was the reason for the contact.&lt;br/&gt;Heavy bleeding had not occurred in the previous 30 minutes.&lt;br/&gt;An illness or health problem was the main problem.&lt;br/&gt;User Comments: Pharmacy ITK Testing&lt;br/&gt;The individual was not fighting for breath.&lt;br/&gt;The main reason for the contact was not an allergic reaction, chest/upper back pain, recent fit/seizure, suicide attempt, new confusion or suspected stroke.&lt;br/&gt;The main reason for contact was not declared diabetic hypo/hyperglycaemia or ICD shock.&lt;br/&gt;The skin on the torso felt normal, warm or hot.&lt;br/&gt;Pathway selected - Vomiting and/or Nausea&lt;br/&gt;The individual had not vomited.&lt;br/&gt;The individual did not also have diarrhoea.&lt;br/&gt;The symptoms did not follow drinking alcohol.&lt;br/&gt;Abdominal pain was also present.&lt;br/&gt;The pain interfered with normal activity.&lt;br/&gt;The individual was able to carry out most or all normal activities.&lt;br/&gt;The individual had not ingested a harmful or toxic substance.&lt;br/&gt;There had been no black and tarry or red/maroon bowel motions.&lt;br/&gt;There was no new or worsening confusion.&lt;br/&gt;Breathing harder or faster when doing nothing was not described.&lt;br/&gt;There was no new shoulder tip pain or pain in the lower right abdomen.&lt;br/&gt;The individual had not been in constant pain for 4 hours or more.&lt;br/&gt;There was no previous history of diabetes.&lt;br/&gt;There was flank pain.&lt;br/&gt;There was a fever at the time of assessment or within the previous 12 hours.&lt;br/&gt;There was no new, widespread, red rash.&lt;br/&gt;Instructions given were: The individual needs to contact a local service within 6 hours.&lt;br/&gt;Directory of Services referral: Urgent Treatment Centre (GP led), Royal South Hants Hospital&lt;br/&gt;</div>"
          }
        }, {
          "title": "Advice Given",
          "text": {
            "status": "generated",
            "div": "<div xmlns=\"http://www.w3.org/1999/xhtml\">I will arrange for a clinician to contact the individual. I need to ask some further questions in order to determine the best way to do this.&lt;br/&gt;If there are any new symptoms, or if the condition gets worse, changes or you have any other concerns, call us back.&lt;br/&gt;\n                                                    &lt;br/&gt;</div>"
          }
        }, {
          "title": "Information And Advice Given"
        }, {
          "title": "Disposition",
          "text": {
            "status": "generated",
            "div": "<div xmlns=\"http://www.w3.org/1999/xhtml\">&lt;content&gt;To contact a local service within 6 hours&lt;br/&gt;\n                                                    &lt;/content&gt;\n                                                    &lt;br/&gt;\n                                                    &lt;br/&gt;</div>"
          }
        } ]
      }, {
        "title": "CarePlan",
        "entry": [ {
          "reference": "urn:uuid:42f8d9ed-7db5-42f7-9907-ea2fbd0c5d8a"
        } ]
      }, {
        "title": "ReferralRequest",
        "entry": [ {
          "reference": "urn:uuid:0dddb293-e591-4b77-ab79-9ad83deab41d"
        } ]
      }, {
        "title": "QuestionnaireResponse",
        "entry": [ {
          "reference": "urn:uuid:4a558858-95cc-4c3e-abeb-c1a360503dea"
        } ]
      }, {
        "title": "QuestionnaireResponse",
        "entry": [ {
          "reference": "urn:uuid:8f04f1d2-2348-41b3-8d8f-4b0017e1fa6a"
        } ]
      }, {
        "title": "QuestionnaireResponse",
        "entry": [ {
          "reference": "urn:uuid:ecca80f7-18d7-4de6-80d5-2c1ecadcacda"
        } ]
      }, {
        "title": "QuestionnaireResponse",
        "entry": [ {
          "reference": "urn:uuid:c9ca6ab0-b0fa-45aa-a7dc-30ccb9eb48df"
        } ]
      }, {
        "title": "QuestionnaireResponse",
        "entry": [ {
          "reference": "urn:uuid:63a2a036-ea65-44bb-8fad-1e641e05cfe9"
        } ]
      }, {
        "title": "QuestionnaireResponse",
        "entry": [ {
          "reference": "urn:uuid:17c423e0-240c-46bd-9706-5282f4e9b9f5"
        } ]
      }, {
        "title": "QuestionnaireResponse",
        "entry": [ {
          "reference": "urn:uuid:ef254b1b-28c5-41f4-b7f3-e15cf45e1210"
        } ]
      }, {
        "title": "QuestionnaireResponse",
        "entry": [ {
          "reference": "urn:uuid:96e93647-3bbc-4007-9a33-edf0cab81f4a"
        } ]
      }, {
        "title": "QuestionnaireResponse",
        "entry": [ {
          "reference": "urn:uuid:51ebc3a0-c27c-4de2-94e5-58c53826cb75"
        } ]
      }, {
        "title": "QuestionnaireResponse",
        "entry": [ {
          "reference": "urn:uuid:1a806bc9-7224-414e-a345-31d1808fe02d"
        } ]
      }, {
        "title": "QuestionnaireResponse",
        "entry": [ {
          "reference": "urn:uuid:956e2d2b-74c9-4e08-8be5-cf5d57c03ea2"
        } ]
      }, {
        "title": "QuestionnaireResponse",
        "entry": [ {
          "reference": "urn:uuid:45e0bd49-d459-41cd-99bf-6118a9ec08f0"
        } ]
      }, {
        "title": "QuestionnaireResponse",
        "entry": [ {
          "reference": "urn:uuid:9af2c150-efb8-4bbf-a41c-87dc75797f42"
        } ]
      }, {
        "title": "QuestionnaireResponse",
        "entry": [ {
          "reference": "urn:uuid:8fe0ffda-1a81-45fb-bd90-d59eed92e132"
        } ]
      }, {
        "title": "QuestionnaireResponse",
        "entry": [ {
          "reference": "urn:uuid:02440884-c6b8-4660-a1cb-2935a4190a27"
        } ]
      }, {
        "title": "QuestionnaireResponse",
        "entry": [ {
          "reference": "urn:uuid:149b9aa1-95f9-4f14-8e49-b61d7320ef7b"
        } ]
      }, {
        "title": "QuestionnaireResponse",
        "entry": [ {
          "reference": "urn:uuid:323f607e-1af0-4798-9892-69ca4bd7dc80"
        } ]
      }, {
        "title": "QuestionnaireResponse",
        "entry": [ {
          "reference": "urn:uuid:9f65e2fc-b727-4cf5-a785-84255d9c6af7"
        } ]
      }, {
        "title": "QuestionnaireResponse",
        "entry": [ {
          "reference": "urn:uuid:e8bf8673-cb26-43d8-a256-358bf7e8f381"
        } ]
      }, {
        "title": "QuestionnaireResponse",
        "entry": [ {
          "reference": "urn:uuid:87cd2780-4670-4dfd-a7a0-93aa6893014d"
        } ]
      }, {
        "title": "QuestionnaireResponse",
        "entry": [ {
          "reference": "urn:uuid:635b594c-ac07-4af6-a765-4957f6612fa3"
        } ]
      }, {
        "title": "QuestionnaireResponse",
        "entry": [ {
          "reference": "urn:uuid:58a72209-a1ed-4a27-bd02-ad61ccc35d2c"
        } ]
      }, {
        "title": "QuestionnaireResponse",
        "entry": [ {
          "reference": "urn:uuid:6faca857-28fd-40ea-928b-264f501cb8f7"
        } ]
      }, {
        "title": "QuestionnaireResponse",
        "entry": [ {
          "reference": "urn:uuid:509ccf39-fc0a-4661-b3ff-dce5e654c853"
        } ]
      }, {
        "title": "QuestionnaireResponse",
        "entry": [ {
          "reference": "urn:uuid:0fe7d5bd-bf97-47a0-87b0-5bcd5bb9e461"
        } ]
      }, {
        "title": "QuestionnaireResponse",
        "entry": [ {
          "reference": "urn:uuid:97e79db7-3506-4f98-b5fa-4ec660c50679"
        } ]
      }, {
        "title": "QuestionnaireResponse",
        "entry": [ {
          "reference": "urn:uuid:bff7f441-e039-4673-a63a-bbf5ee7f6b0a"
        } ]
      }, {
        "title": "QuestionnaireResponse",
        "entry": [ {
          "reference": "urn:uuid:6108dcf8-f255-422b-a20f-4855810c3b6d"
        } ]
      }, {
        "title": "QuestionnaireResponse",
        "entry": [ {
          "reference": "urn:uuid:45a8e4c4-c0f9-4f19-8587-312244294d92"
        } ]
      }, {
        "title": "QuestionnaireResponse",
        "entry": [ {
          "reference": "urn:uuid:554aac57-9fe3-44a5-871c-19f0fe58b430"
        } ]
      }, {
        "title": "QuestionnaireResponse",
        "entry": [ {
          "reference": "urn:uuid:2a7b0a68-61f5-482a-b62f-8db803216ff7"
        } ]
      }, {
        "title": "QuestionnaireResponse",
        "entry": [ {
          "reference": "urn:uuid:08063d7f-8980-4aaa-80d5-fe651e2383e9"
        } ]
      }, {
        "title": "QuestionnaireResponse",
        "entry": [ {
          "reference": "urn:uuid:d5f7466d-89e0-4654-8b06-ff732b478132"
        } ]
      }, {
        "title": "QuestionnaireResponse",
        "entry": [ {
          "reference": "urn:uuid:b0978f92-a72a-43d6-836d-079ab6116263"
        } ]
      }, {
        "title": "QuestionnaireResponse",
        "entry": [ {
          "reference": "urn:uuid:9bc060fc-4f2c-45ea-bac2-4715c149c4e6"
        } ]
      }, {
        "title": "QuestionnaireResponse",
        "entry": [ {
          "reference": "urn:uuid:d817a376-6a8a-4a11-b94c-0504b7142935"
        } ]
      }, {
        "title": "QuestionnaireResponse",
        "entry": [ {
          "reference": "urn:uuid:9c1a47b4-b88f-41ab-9077-64529b96f8e1"
        } ]
      }, {
        "title": "QuestionnaireResponse",
        "entry": [ {
          "reference": "urn:uuid:d8f98367-06ff-4077-bc00-b2892dcfd2cf"
        } ]
      }, {
        "title": "QuestionnaireResponse",
        "entry": [ {
          "reference": "urn:uuid:cf9ac13d-0c5e-4da2-8e63-0962c5c57a42"
        } ]
      }, {
        "title": "QuestionnaireResponse",
        "entry": [ {
          "reference": "urn:uuid:ab922e99-d67a-4549-8964-912e779ee220"
        } ]
      }, {
        "title": "QuestionnaireResponse",
        "entry": [ {
          "reference": "urn:uuid:7cdb3f48-85a6-4463-9263-cbb82cd967e8"
        } ]
      }, {
        "title": "QuestionnaireResponse",
        "entry": [ {
          "reference": "urn:uuid:b3364688-11df-4252-8979-e18c73ca8050"
        } ]
      }, {
        "title": "QuestionnaireResponse",
        "entry": [ {
          "reference": "urn:uuid:d9bc71e7-0f22-4e5f-9a25-50672d8cdced"
        } ]
      }, {
        "title": "QuestionnaireResponse",
        "entry": [ {
          "reference": "urn:uuid:a0a70ac7-4909-490e-bb86-d93c0563d820"
        } ]
      }, {
        "title": "QuestionnaireResponse",
        "entry": [ {
          "reference": "urn:uuid:1ea841d6-fd5b-4f32-8f6f-97be6b78a06d"
        } ]
      }, {
        "title": "QuestionnaireResponse",
        "entry": [ {
          "reference": "urn:uuid:e24f0ed4-a324-4cbf-a27d-698d2448d2c8"
        } ]
      }, {
        "title": "QuestionnaireResponse",
        "entry": [ {
          "reference": "urn:uuid:8e02df64-fcb7-45a5-9006-e870b530e60d"
        } ]
      }, {
        "title": "QuestionnaireResponse",
        "entry": [ {
          "reference": "urn:uuid:9eb059fe-6271-45b0-a4a2-e3e930f92992"
        } ]
      }, {
        "title": "QuestionnaireResponse",
        "entry": [ {
          "reference": "urn:uuid:0dcdfddb-3674-40e3-8e00-f317a96c1277"
        } ]
      }, {
        "title": "QuestionnaireResponse",
        "entry": [ {
          "reference": "urn:uuid:4dbdebf6-0cd8-4a2a-9a6f-2fa4aefff645"
        } ]
      }, {
        "title": "QuestionnaireResponse",
        "entry": [ {
          "reference": "urn:uuid:85305668-1746-4666-91c2-e2bab1cdd7a5"
        } ]
      }, {
        "title": "QuestionnaireResponse",
        "entry": [ {
          "reference": "urn:uuid:430b64de-7ef6-4523-881b-d2fa267bc46a"
        } ]
      }, {
        "title": "QuestionnaireResponse",
        "entry": [ {
          "reference": "urn:uuid:141978ab-e990-4ff0-9c9f-ebcf50a76049"
        } ]
      }, {
        "title": "QuestionnaireResponse",
        "entry": [ {
          "reference": "urn:uuid:0b75f091-4e5d-4ade-882e-f38552b49f71"
        } ]
      }, {
        "title": "QuestionnaireResponse",
        "entry": [ {
          "reference": "urn:uuid:4de2a44e-be27-4b8e-963b-d2993c9ad3fa"
        } ]
      }, {
        "title": "QuestionnaireResponse",
        "entry": [ {
          "reference": "urn:uuid:7700c889-7c29-40fd-aeb0-cdde01035553"
        } ]
      }, {
        "title": "QuestionnaireResponse",
        "entry": [ {
          "reference": "urn:uuid:c776ee6a-f16d-4a92-9470-f0e443599b8c"
        } ]
      }, {
        "title": "QuestionnaireResponse",
        "entry": [ {
          "reference": "urn:uuid:ce80a080-acd7-414d-bdc2-5f7b8601c252"
        } ]
      }, {
        "title": "QuestionnaireResponse",
        "entry": [ {
          "reference": "urn:uuid:7e28d91e-c729-4095-bf6f-b9d29764d4c7"
        } ]
      }, {
        "title": "QuestionnaireResponse",
        "entry": [ {
          "reference": "urn:uuid:f379f8c7-d418-4a7e-a2f1-696dc3a9c9cc"
        } ]
      }, {
        "title": "QuestionnaireResponse",
        "entry": [ {
          "reference": "urn:uuid:1c9ca487-b5fd-4595-a719-307eb69d09b5"
        } ]
      }, {
        "title": "QuestionnaireResponse",
        "entry": [ {
          "reference": "urn:uuid:7218b42e-b471-4393-a500-178c47f05714"
        } ]
      }, {
        "title": "QuestionnaireResponse",
        "entry": [ {
          "reference": "urn:uuid:0d4ffd90-afcd-4e59-bb28-b6fad85e2d81"
        } ]
      }, {
        "title": "QuestionnaireResponse",
        "entry": [ {
          "reference": "urn:uuid:497787f0-3994-4771-b876-56954eee06db"
        } ]
      }, {
        "title": "QuestionnaireResponse",
        "entry": [ {
          "reference": "urn:uuid:8cd08f34-e019-4a0a-940d-31f04a687058"
        } ]
      }, {
        "title": "QuestionnaireResponse",
        "entry": [ {
          "reference": "urn:uuid:c3ac8eaa-28cc-450a-8c66-de0532d95def"
        } ]
      }, {
        "title": "QuestionnaireResponse",
        "entry": [ {
          "reference": "urn:uuid:2f69b309-1ffb-47fb-b329-d13bba6932c2"
        } ]
      }, {
        "title": "QuestionnaireResponse",
        "entry": [ {
          "reference": "urn:uuid:92f93ccf-2025-4b3a-8f00-d2dbe19e6305"
        } ]
      }, {
        "title": "QuestionnaireResponse",
        "entry": [ {
          "reference": "urn:uuid:da85634c-e18c-4057-9302-075e98a52155"
        } ]
      }, {
        "title": "QuestionnaireResponse",
        "entry": [ {
          "reference": "urn:uuid:fd6bf66c-c3a0-4873-814d-80bc9206c3f0"
        } ]
      }, {
        "title": "QuestionnaireResponse",
        "entry": [ {
          "reference": "urn:uuid:4808562c-c108-4580-91da-020771f26928"
        } ]
      }, {
        "title": "QuestionnaireResponse",
        "entry": [ {
          "reference": "urn:uuid:c8ff2f60-df23-49d9-ab18-bd6518669814"
        } ]
      }, {
        "title": "QuestionnaireResponse",
        "entry": [ {
          "reference": "urn:uuid:cd86955c-4265-43bd-800d-3f967a7deb40"
        } ]
      } ]
    }
  }, {
    "fullUrl": "urn:uuid:42f8d9ed-7db5-42f7-9907-ea2fbd0c5d8a",
    "resource": {
      "resourceType": "CarePlan",
      "id": "42f8d9ed-7db5-42f7-9907-ea2fbd0c5d8a",
      "status": "completed",
      "intent": "plan",
      "title": "Information And Advice Given",
      "subject": {
        "reference": "urn:uuid:6bbb8eb5-eeca-4d0c-a341-e468a60376cb"
      },
      "context": {
        "reference": "urn:uuid:115bf9ad-dc46-4f52-be5a-452f6f061744"
      },
      "period": {
        "start": "2021-04-06T11:33:35+00:00"
      },
      "author": [ {
        "reference": "urn:uuid:df28781c-1edd-4b17-82a2-aa13f5cb418d"
      } ],
      "addresses": [ {
        "reference": "urn:uuid:9740f035-496d-41d6-aa44-10ee7a98afb9"
      } ]
    }
  }, {
    "fullUrl": "urn:uuid:4e920b88-1ef5-4a00-885f-f29825e0ab3e",
    "resource": {
      "resourceType": "Consent",
      "id": "4e920b88-1ef5-4a00-885f-f29825e0ab3e",
      "identifier": {
        "use": "usual",
        "value": "A8E3FB32-6805-4191-B071-EA540A9318CD"
      },
      "status": "active",
      "patient": {
        "reference": "urn:uuid:6bbb8eb5-eeca-4d0c-a341-e468a60376cb"
      },
      "period": {
        "start": "2021-04-06T11:33:35+00:00"
      },
      "consentingParty": [ {
        "reference": "urn:uuid:6bbb8eb5-eeca-4d0c-a341-e468a60376cb"
      } ],
      "action": [ {
        "coding": [ {
          "system": "http://snomed.info/sct",
          "code": "425691002",
          "display": "Consent given for electronic record sharing"
        } ],
        "text": "Consent given for electronic record sharing"
      } ],
      "organization": [ {
        "reference": "urn:uuid:b299c99b-f103-4e5d-bf01-62efe7a5a5ed"
      } ],
      "policyRule": "http://hl7.org/fhir/ConsentPolicy/opt-out",
      "data": [ {
        "meaning": "related",
        "reference": {
          "reference": "urn:uuid:115bf9ad-dc46-4f52-be5a-452f6f061744"
        }
      } ]
    }
  }, {
    "fullUrl": "urn:uuid:9740f035-496d-41d6-aa44-10ee7a98afb9",
    "resource": {
      "resourceType": "Condition",
      "id": "9740f035-496d-41d6-aa44-10ee7a98afb9",
      "clinicalStatus": "active",
      "verificationStatus": "unknown",
      "subject": {
        "reference": "urn:uuid:6bbb8eb5-eeca-4d0c-a341-e468a60376cb"
      },
      "context": {
        "reference": "urn:uuid:115bf9ad-dc46-4f52-be5a-452f6f061744"
      },
      "evidence": [ {
        "detail": [ {
          "reference": "urn:uuid:4a558858-95cc-4c3e-abeb-c1a360503dea"
        } ]
      }, {
        "detail": [ {
          "reference": "urn:uuid:8f04f1d2-2348-41b3-8d8f-4b0017e1fa6a"
        } ]
      }, {
        "detail": [ {
          "reference": "urn:uuid:ecca80f7-18d7-4de6-80d5-2c1ecadcacda"
        } ]
      }, {
        "detail": [ {
          "reference": "urn:uuid:c9ca6ab0-b0fa-45aa-a7dc-30ccb9eb48df"
        } ]
      }, {
        "detail": [ {
          "reference": "urn:uuid:63a2a036-ea65-44bb-8fad-1e641e05cfe9"
        } ]
      }, {
        "detail": [ {
          "reference": "urn:uuid:17c423e0-240c-46bd-9706-5282f4e9b9f5"
        } ]
      }, {
        "detail": [ {
          "reference": "urn:uuid:ef254b1b-28c5-41f4-b7f3-e15cf45e1210"
        } ]
      }, {
        "detail": [ {
          "reference": "urn:uuid:96e93647-3bbc-4007-9a33-edf0cab81f4a"
        } ]
      }, {
        "detail": [ {
          "reference": "urn:uuid:51ebc3a0-c27c-4de2-94e5-58c53826cb75"
        } ]
      }, {
        "detail": [ {
          "reference": "urn:uuid:1a806bc9-7224-414e-a345-31d1808fe02d"
        } ]
      }, {
        "detail": [ {
          "reference": "urn:uuid:956e2d2b-74c9-4e08-8be5-cf5d57c03ea2"
        } ]
      }, {
        "detail": [ {
          "reference": "urn:uuid:45e0bd49-d459-41cd-99bf-6118a9ec08f0"
        } ]
      }, {
        "detail": [ {
          "reference": "urn:uuid:9af2c150-efb8-4bbf-a41c-87dc75797f42"
        } ]
      }, {
        "detail": [ {
          "reference": "urn:uuid:8fe0ffda-1a81-45fb-bd90-d59eed92e132"
        } ]
      }, {
        "detail": [ {
          "reference": "urn:uuid:02440884-c6b8-4660-a1cb-2935a4190a27"
        } ]
      }, {
        "detail": [ {
          "reference": "urn:uuid:149b9aa1-95f9-4f14-8e49-b61d7320ef7b"
        } ]
      }, {
        "detail": [ {
          "reference": "urn:uuid:323f607e-1af0-4798-9892-69ca4bd7dc80"
        } ]
      }, {
        "detail": [ {
          "reference": "urn:uuid:9f65e2fc-b727-4cf5-a785-84255d9c6af7"
        } ]
      }, {
        "detail": [ {
          "reference": "urn:uuid:e8bf8673-cb26-43d8-a256-358bf7e8f381"
        } ]
      }, {
        "detail": [ {
          "reference": "urn:uuid:87cd2780-4670-4dfd-a7a0-93aa6893014d"
        } ]
      }, {
        "detail": [ {
          "reference": "urn:uuid:635b594c-ac07-4af6-a765-4957f6612fa3"
        } ]
      }, {
        "detail": [ {
          "reference": "urn:uuid:58a72209-a1ed-4a27-bd02-ad61ccc35d2c"
        } ]
      }, {
        "detail": [ {
          "reference": "urn:uuid:6faca857-28fd-40ea-928b-264f501cb8f7"
        } ]
      }, {
        "detail": [ {
          "reference": "urn:uuid:509ccf39-fc0a-4661-b3ff-dce5e654c853"
        } ]
      }, {
        "detail": [ {
          "reference": "urn:uuid:0fe7d5bd-bf97-47a0-87b0-5bcd5bb9e461"
        } ]
      }, {
        "detail": [ {
          "reference": "urn:uuid:97e79db7-3506-4f98-b5fa-4ec660c50679"
        } ]
      }, {
        "detail": [ {
          "reference": "urn:uuid:bff7f441-e039-4673-a63a-bbf5ee7f6b0a"
        } ]
      }, {
        "detail": [ {
          "reference": "urn:uuid:6108dcf8-f255-422b-a20f-4855810c3b6d"
        } ]
      }, {
        "detail": [ {
          "reference": "urn:uuid:45a8e4c4-c0f9-4f19-8587-312244294d92"
        } ]
      }, {
        "detail": [ {
          "reference": "urn:uuid:554aac57-9fe3-44a5-871c-19f0fe58b430"
        } ]
      }, {
        "detail": [ {
          "reference": "urn:uuid:2a7b0a68-61f5-482a-b62f-8db803216ff7"
        } ]
      }, {
        "detail": [ {
          "reference": "urn:uuid:08063d7f-8980-4aaa-80d5-fe651e2383e9"
        } ]
      }, {
        "detail": [ {
          "reference": "urn:uuid:d5f7466d-89e0-4654-8b06-ff732b478132"
        } ]
      }, {
        "detail": [ {
          "reference": "urn:uuid:b0978f92-a72a-43d6-836d-079ab6116263"
        } ]
      }, {
        "detail": [ {
          "reference": "urn:uuid:9bc060fc-4f2c-45ea-bac2-4715c149c4e6"
        } ]
      }, {
        "detail": [ {
          "reference": "urn:uuid:d817a376-6a8a-4a11-b94c-0504b7142935"
        } ]
      }, {
        "detail": [ {
          "reference": "urn:uuid:9c1a47b4-b88f-41ab-9077-64529b96f8e1"
        } ]
      }, {
        "detail": [ {
          "reference": "urn:uuid:d8f98367-06ff-4077-bc00-b2892dcfd2cf"
        } ]
      }, {
        "detail": [ {
          "reference": "urn:uuid:cf9ac13d-0c5e-4da2-8e63-0962c5c57a42"
        } ]
      }, {
        "detail": [ {
          "reference": "urn:uuid:ab922e99-d67a-4549-8964-912e779ee220"
        } ]
      }, {
        "detail": [ {
          "reference": "urn:uuid:7cdb3f48-85a6-4463-9263-cbb82cd967e8"
        } ]
      }, {
        "detail": [ {
          "reference": "urn:uuid:b3364688-11df-4252-8979-e18c73ca8050"
        } ]
      }, {
        "detail": [ {
          "reference": "urn:uuid:d9bc71e7-0f22-4e5f-9a25-50672d8cdced"
        } ]
      }, {
        "detail": [ {
          "reference": "urn:uuid:a0a70ac7-4909-490e-bb86-d93c0563d820"
        } ]
      }, {
        "detail": [ {
          "reference": "urn:uuid:1ea841d6-fd5b-4f32-8f6f-97be6b78a06d"
        } ]
      }, {
        "detail": [ {
          "reference": "urn:uuid:e24f0ed4-a324-4cbf-a27d-698d2448d2c8"
        } ]
      }, {
        "detail": [ {
          "reference": "urn:uuid:8e02df64-fcb7-45a5-9006-e870b530e60d"
        } ]
      }, {
        "detail": [ {
          "reference": "urn:uuid:9eb059fe-6271-45b0-a4a2-e3e930f92992"
        } ]
      }, {
        "detail": [ {
          "reference": "urn:uuid:0dcdfddb-3674-40e3-8e00-f317a96c1277"
        } ]
      }, {
        "detail": [ {
          "reference": "urn:uuid:4dbdebf6-0cd8-4a2a-9a6f-2fa4aefff645"
        } ]
      }, {
        "detail": [ {
          "reference": "urn:uuid:85305668-1746-4666-91c2-e2bab1cdd7a5"
        } ]
      }, {
        "detail": [ {
          "reference": "urn:uuid:430b64de-7ef6-4523-881b-d2fa267bc46a"
        } ]
      }, {
        "detail": [ {
          "reference": "urn:uuid:141978ab-e990-4ff0-9c9f-ebcf50a76049"
        } ]
      }, {
        "detail": [ {
          "reference": "urn:uuid:0b75f091-4e5d-4ade-882e-f38552b49f71"
        } ]
      }, {
        "detail": [ {
          "reference": "urn:uuid:4de2a44e-be27-4b8e-963b-d2993c9ad3fa"
        } ]
      }, {
        "detail": [ {
          "reference": "urn:uuid:7700c889-7c29-40fd-aeb0-cdde01035553"
        } ]
      }, {
        "detail": [ {
          "reference": "urn:uuid:c776ee6a-f16d-4a92-9470-f0e443599b8c"
        } ]
      }, {
        "detail": [ {
          "reference": "urn:uuid:ce80a080-acd7-414d-bdc2-5f7b8601c252"
        } ]
      }, {
        "detail": [ {
          "reference": "urn:uuid:7e28d91e-c729-4095-bf6f-b9d29764d4c7"
        } ]
      }, {
        "detail": [ {
          "reference": "urn:uuid:f379f8c7-d418-4a7e-a2f1-696dc3a9c9cc"
        } ]
      }, {
        "detail": [ {
          "reference": "urn:uuid:1c9ca487-b5fd-4595-a719-307eb69d09b5"
        } ]
      }, {
        "detail": [ {
          "reference": "urn:uuid:7218b42e-b471-4393-a500-178c47f05714"
        } ]
      }, {
        "detail": [ {
          "reference": "urn:uuid:0d4ffd90-afcd-4e59-bb28-b6fad85e2d81"
        } ]
      }, {
        "detail": [ {
          "reference": "urn:uuid:497787f0-3994-4771-b876-56954eee06db"
        } ]
      }, {
        "detail": [ {
          "reference": "urn:uuid:8cd08f34-e019-4a0a-940d-31f04a687058"
        } ]
      }, {
        "detail": [ {
          "reference": "urn:uuid:c3ac8eaa-28cc-450a-8c66-de0532d95def"
        } ]
      }, {
        "detail": [ {
          "reference": "urn:uuid:2f69b309-1ffb-47fb-b329-d13bba6932c2"
        } ]
      }, {
        "detail": [ {
          "reference": "urn:uuid:92f93ccf-2025-4b3a-8f00-d2dbe19e6305"
        } ]
      }, {
        "detail": [ {
          "reference": "urn:uuid:da85634c-e18c-4057-9302-075e98a52155"
        } ]
      }, {
        "detail": [ {
          "reference": "urn:uuid:fd6bf66c-c3a0-4873-814d-80bc9206c3f0"
        } ]
      }, {
        "detail": [ {
          "reference": "urn:uuid:4808562c-c108-4580-91da-020771f26928"
        } ]
      }, {
        "detail": [ {
          "reference": "urn:uuid:c8ff2f60-df23-49d9-ab18-bd6518669814"
        } ]
      }, {
        "detail": [ {
          "reference": "urn:uuid:cd86955c-4265-43bd-800d-3f967a7deb40"
        } ]
      } ]
    }
  }, {
    "fullUrl": "urn:uuid:4a558858-95cc-4c3e-abeb-c1a360503dea",
    "resource": {
      "resourceType": "QuestionnaireResponse",
      "id": "4a558858-95cc-4c3e-abeb-c1a360503dea",
      "identifier": {
        "value": "59132"
      },
      "questionnaire": {
        "reference": "urn:uuid:ae6db7cb-ffc9-46bb-b495-d8c9cf15d5d8"
      },
      "status": "completed",
      "subject": {
        "reference": "urn:uuid:6bbb8eb5-eeca-4d0c-a341-e468a60376cb"
      },
      "context": {
        "reference": "urn:uuid:115bf9ad-dc46-4f52-be5a-452f6f061744"
      },
      "authored": "2021-04-06T11:33:34+00:00",
      "item": [ {
        "linkId": "Tx220074",
        "text": "What is the reason for the contact?",
        "answer": [ {
          "valueString": "an injury or other health problem"
        } ]
      } ]
    }
  }, {
    "fullUrl": "urn:uuid:ae6db7cb-ffc9-46bb-b495-d8c9cf15d5d8",
    "resource": {
      "resourceType": "Questionnaire",
      "id": "ae6db7cb-ffc9-46bb-b495-d8c9cf15d5d8",
      "identifier": [ {
        "value": "59132"
      } ],
      "version": "2021-04-06T11:33:34.963Z",
      "status": "active",
      "experimental": false,
      "date": "2021-04-06T11:33:34+00:00",
      "publisher": "User ID: 'MCDONALDD' User name: 'Denzle McDonald' User skill set: 'T3'",
      "lastReviewDate": "2021-04-06",
      "subjectType": [ "Patient" ],
      "item": [ {
        "linkId": "59132",
        "prefix": "5",
        "text": "What is the reason for the contact?",
        "type": "choice",
        "required": true,
        "repeats": false,
        "option": [ {
          "valueString": "an injury or other health problem, Selected: true"
        }, {
          "valueString": "labour or childbirth, Selected: false"
        }, {
          "valueString": "a need to access another healthcare service, Selected: false"
        }, {
          "valueString": "a healthcare professional requesting contact with another clinician, Selected: false"
        }, {
          "valueString": "a report of results or tests, Selected: false"
        }, {
          "valueString": "a possible failure of contraception, Selected: false"
        }, {
          "valueString": "more, Selected: false"
        } ]
      } ]
    }
  }, {
    "fullUrl": "urn:uuid:8f04f1d2-2348-41b3-8d8f-4b0017e1fa6a",
    "resource": {
      "resourceType": "QuestionnaireResponse",
      "id": "8f04f1d2-2348-41b3-8d8f-4b0017e1fa6a",
      "identifier": {
        "value": "59132"
      },
      "questionnaire": {
        "reference": "urn:uuid:7122ab4f-6f92-4a7f-8c71-cd52bb2c02e4"
      },
      "status": "completed",
      "subject": {
        "reference": "urn:uuid:6bbb8eb5-eeca-4d0c-a341-e468a60376cb"
      },
      "context": {
        "reference": "urn:uuid:115bf9ad-dc46-4f52-be5a-452f6f061744"
      },
      "authored": "2021-04-06T11:33:34+00:00",
      "item": [ {
        "linkId": "Tx221807",
        "text": "STRING:to'Immediatethreatstolife(SPA/OOHversion)'-'Majorbloodloss'stem",
        "answer": [ {
          "valueString": "\"present\""
        } ]
      } ]
    }
  }, {
    "fullUrl": "urn:uuid:7122ab4f-6f92-4a7f-8c71-cd52bb2c02e4",
    "resource": {
      "resourceType": "Questionnaire",
      "id": "7122ab4f-6f92-4a7f-8c71-cd52bb2c02e4",
      "identifier": [ {
        "value": "59132"
      } ],
      "version": "2021-04-06T11:33:34.963Z",
      "status": "active",
      "experimental": false,
      "date": "2021-04-06T11:33:34+00:00",
      "publisher": "User ID: 'MCDONALDD' User name: 'Denzle McDonald' User skill set: 'T3'",
      "lastReviewDate": "2021-04-06",
      "subjectType": [ "Patient" ],
      "item": [ {
        "linkId": "59132",
        "prefix": "400",
        "text": "STRING:to'Immediatethreatstolife(SPA/OOHversion)'-'Majorbloodloss'stem",
        "type": "choice",
        "required": true,
        "repeats": false,
        "option": [ {
          "valueString": "\"present\", Selected: true"
        } ]
      } ]
    }
  }, {
    "fullUrl": "urn:uuid:ecca80f7-18d7-4de6-80d5-2c1ecadcacda",
    "resource": {
      "resourceType": "QuestionnaireResponse",
      "id": "ecca80f7-18d7-4de6-80d5-2c1ecadcacda",
      "identifier": {
        "value": "59132"
      },
      "questionnaire": {
        "reference": "urn:uuid:e8a6170b-eaa8-44b7-916e-55309eef18ee"
      },
      "status": "completed",
      "subject": {
        "reference": "urn:uuid:6bbb8eb5-eeca-4d0c-a341-e468a60376cb"
      },
      "context": {
        "reference": "urn:uuid:115bf9ad-dc46-4f52-be5a-452f6f061744"
      },
      "authored": "2021-04-06T11:33:34+00:00"
    }
  }, {
    "fullUrl": "urn:uuid:e8a6170b-eaa8-44b7-916e-55309eef18ee",
    "resource": {
      "resourceType": "Questionnaire",
      "id": "e8a6170b-eaa8-44b7-916e-55309eef18ee",
      "identifier": [ {
        "value": "59132"
      } ],
      "version": "2021-04-06T11:33:34.963Z",
      "status": "active",
      "experimental": false,
      "date": "2021-04-06T11:33:34+00:00",
      "publisher": "User ID: 'MCDONALDD' User name: 'Denzle McDonald' User skill set: 'T3'",
      "lastReviewDate": "2021-04-06",
      "subjectType": [ "Patient" ]
    }
  }, {
    "fullUrl": "urn:uuid:c9ca6ab0-b0fa-45aa-a7dc-30ccb9eb48df",
    "resource": {
      "resourceType": "QuestionnaireResponse",
      "id": "c9ca6ab0-b0fa-45aa-a7dc-30ccb9eb48df",
      "identifier": {
        "value": "59132"
      },
      "questionnaire": {
        "reference": "urn:uuid:d82b3f66-5153-4096-aaf6-25b34196bb4e"
      },
      "status": "completed",
      "subject": {
        "reference": "urn:uuid:6bbb8eb5-eeca-4d0c-a341-e468a60376cb"
      },
      "context": {
        "reference": "urn:uuid:115bf9ad-dc46-4f52-be5a-452f6f061744"
      },
      "authored": "2021-04-06T11:33:34+00:00",
      "item": [ {
        "linkId": "Tx221799",
        "text": "STRING:injury,illnessorlabourestablishedinEntryFlow",
        "answer": [ {
          "valueString": "\"present\""
        } ]
      } ]
    }
  }, {
    "fullUrl": "urn:uuid:d82b3f66-5153-4096-aaf6-25b34196bb4e",
    "resource": {
      "resourceType": "Questionnaire",
      "id": "d82b3f66-5153-4096-aaf6-25b34196bb4e",
      "identifier": [ {
        "value": "59132"
      } ],
      "version": "2021-04-06T11:33:34.963Z",
      "status": "active",
      "experimental": false,
      "date": "2021-04-06T11:33:34+00:00",
      "publisher": "User ID: 'MCDONALDD' User name: 'Denzle McDonald' User skill set: 'T3'",
      "lastReviewDate": "2021-04-06",
      "subjectType": [ "Patient" ],
      "item": [ {
        "linkId": "59132",
        "prefix": "0",
        "text": "STRING:injury,illnessorlabourestablishedinEntryFlow",
        "type": "choice",
        "required": true,
        "repeats": false,
        "option": [ {
          "valueString": "\"present\", Selected: true"
        } ]
      } ]
    }
  }, {
    "fullUrl": "urn:uuid:63a2a036-ea65-44bb-8fad-1e641e05cfe9",
    "resource": {
      "resourceType": "QuestionnaireResponse",
      "id": "63a2a036-ea65-44bb-8fad-1e641e05cfe9",
      "identifier": {
        "value": "59132"
      },
      "questionnaire": {
        "reference": "urn:uuid:03d8638b-8a68-4c97-9033-54f386883677"
      },
      "status": "completed",
      "subject": {
        "reference": "urn:uuid:6bbb8eb5-eeca-4d0c-a341-e468a60376cb"
      },
      "context": {
        "reference": "urn:uuid:115bf9ad-dc46-4f52-be5a-452f6f061744"
      },
      "authored": "2021-04-06T11:33:34+00:00",
      "item": [ {
        "linkId": "Tx221421",
        "text": "Have you been bleeding RED BLOOD very heavily IN THE LAST 30 MINUTES?",
        "answer": [ {
          "valueString": "no"
        } ]
      } ]
    }
  }, {
    "fullUrl": "urn:uuid:03d8638b-8a68-4c97-9033-54f386883677",
    "resource": {
      "resourceType": "Questionnaire",
      "id": "03d8638b-8a68-4c97-9033-54f386883677",
      "identifier": [ {
        "value": "59132"
      } ],
      "version": "2021-04-06T11:33:34.963Z",
      "status": "active",
      "experimental": false,
      "date": "2021-04-06T11:33:34+00:00",
      "publisher": "User ID: 'MCDONALDD' User name: 'Denzle McDonald' User skill set: 'T3'",
      "lastReviewDate": "2021-04-06",
      "subjectType": [ "Patient" ],
      "item": [ {
        "linkId": "59132",
        "prefix": "200",
        "text": "Have you been bleeding RED BLOOD very heavily IN THE LAST 30 MINUTES?",
        "type": "choice",
        "required": true,
        "repeats": false,
        "option": [ {
          "valueString": "yes, Selected: false"
        }, {
          "valueString": "not sure, Selected: false"
        }, {
          "valueString": "no, Selected: true"
        } ]
      } ]
    }
  }, {
    "fullUrl": "urn:uuid:17c423e0-240c-46bd-9706-5282f4e9b9f5",
    "resource": {
      "resourceType": "QuestionnaireResponse",
      "id": "17c423e0-240c-46bd-9706-5282f4e9b9f5",
      "identifier": {
        "value": "59132"
      },
      "questionnaire": {
        "reference": "urn:uuid:badf1828-30fb-42aa-9124-95649865a1ee"
      },
      "status": "completed",
      "subject": {
        "reference": "urn:uuid:6bbb8eb5-eeca-4d0c-a341-e468a60376cb"
      },
      "context": {
        "reference": "urn:uuid:115bf9ad-dc46-4f52-be5a-452f6f061744"
      },
      "authored": "2021-04-06T11:33:34+00:00",
      "item": [ {
        "linkId": "Tx221343",
        "text": "SocialConcernsExcluded",
        "answer": [ {
          "valueString": "*"
        } ]
      } ]
    }
  }, {
    "fullUrl": "urn:uuid:badf1828-30fb-42aa-9124-95649865a1ee",
    "resource": {
      "resourceType": "Questionnaire",
      "id": "badf1828-30fb-42aa-9124-95649865a1ee",
      "identifier": [ {
        "value": "59132"
      } ],
      "version": "2021-04-06T11:33:34.963Z",
      "status": "active",
      "experimental": false,
      "date": "2021-04-06T11:33:34+00:00",
      "publisher": "User ID: 'MCDONALDD' User name: 'Denzle McDonald' User skill set: 'T3'",
      "lastReviewDate": "2021-04-06",
      "subjectType": [ "Patient" ],
      "item": [ {
        "linkId": "59132",
        "prefix": "2600",
        "text": "SocialConcernsExcluded",
        "type": "choice",
        "required": true,
        "repeats": false,
        "option": [ {
          "valueString": "==\"present\", Selected: false"
        }, {
          "valueString": "*, Selected: true"
        } ]
      } ]
    }
  }, {
    "fullUrl": "urn:uuid:ef254b1b-28c5-41f4-b7f3-e15cf45e1210",
    "resource": {
      "resourceType": "QuestionnaireResponse",
      "id": "ef254b1b-28c5-41f4-b7f3-e15cf45e1210",
      "identifier": {
        "value": "59132"
      },
      "questionnaire": {
        "reference": "urn:uuid:ea047174-2205-4b2a-b024-7e2ff74cdc8b"
      },
      "status": "completed",
      "subject": {
        "reference": "urn:uuid:6bbb8eb5-eeca-4d0c-a341-e468a60376cb"
      },
      "context": {
        "reference": "urn:uuid:115bf9ad-dc46-4f52-be5a-452f6f061744"
      },
      "authored": "2021-04-06T11:33:34+00:00",
      "item": [ {
        "linkId": "Tx130011",
        "text": "What is the main problem?",
        "answer": [ {
          "valueString": "illness or other health problem (specify)"
        } ]
      } ]
    }
  }, {
    "fullUrl": "urn:uuid:ea047174-2205-4b2a-b024-7e2ff74cdc8b",
    "resource": {
      "resourceType": "Questionnaire",
      "id": "ea047174-2205-4b2a-b024-7e2ff74cdc8b",
      "identifier": [ {
        "value": "59132"
      } ],
      "version": "2021-04-06T11:33:34.963Z",
      "status": "active",
      "experimental": false,
      "date": "2021-04-06T11:33:34+00:00",
      "publisher": "User ID: 'MCDONALDD' User name: 'Denzle McDonald' User skill set: 'T3'",
      "lastReviewDate": "2021-04-06",
      "subjectType": [ "Patient" ],
      "item": [ {
        "linkId": "59132",
        "prefix": "2500",
        "text": "What is the main problem?",
        "type": "choice",
        "required": true,
        "repeats": false,
        "option": [ {
          "valueString": "the individual has been told to follow a particular course of action (specify), Selected: false"
        }, {
          "valueString": "the individual is an identified frequent caller, Selected: false"
        }, {
          "valueString": "injury (specify), Selected: false"
        }, {
          "valueString": "illness or other health problem (specify), Selected: true"
        }, {
          "valueString": "child protection/vulnerable adult concern, Selected: false"
        }, {
          "valueString": "social or domestic emergency, Selected: false"
        }, {
          "valueString": "the environment potentially poses an immediate threat to life (specify), Selected: false"
        } ]
      } ]
    }
  }, {
    "fullUrl": "urn:uuid:96e93647-3bbc-4007-9a33-edf0cab81f4a",
    "resource": {
      "resourceType": "QuestionnaireResponse",
      "id": "96e93647-3bbc-4007-9a33-edf0cab81f4a",
      "identifier": {
        "value": "59132"
      },
      "questionnaire": {
        "reference": "urn:uuid:96b271c2-ce31-4daf-adf7-6f6b3e44874d"
      },
      "status": "completed",
      "subject": {
        "reference": "urn:uuid:6bbb8eb5-eeca-4d0c-a341-e468a60376cb"
      },
      "context": {
        "reference": "urn:uuid:115bf9ad-dc46-4f52-be5a-452f6f061744"
      },
      "authored": "2021-04-06T11:33:34+00:00"
    }
  }, {
    "fullUrl": "urn:uuid:96b271c2-ce31-4daf-adf7-6f6b3e44874d",
    "resource": {
      "resourceType": "Questionnaire",
      "id": "96b271c2-ce31-4daf-adf7-6f6b3e44874d",
      "identifier": [ {
        "value": "59132"
      } ],
      "version": "2021-04-06T11:33:34.963Z",
      "status": "active",
      "experimental": false,
      "date": "2021-04-06T11:33:34+00:00",
      "publisher": "User ID: 'MCDONALDD' User name: 'Denzle McDonald' User skill set: 'T3'",
      "lastReviewDate": "2021-04-06",
      "subjectType": [ "Patient" ]
    }
  }, {
    "fullUrl": "urn:uuid:51ebc3a0-c27c-4de2-94e5-58c53826cb75",
    "resource": {
      "resourceType": "QuestionnaireResponse",
      "id": "51ebc3a0-c27c-4de2-94e5-58c53826cb75",
      "identifier": {
        "value": "59132"
      },
      "questionnaire": {
        "reference": "urn:uuid:644df005-752f-4537-8d71-ead6310b57ab"
      },
      "status": "completed",
      "subject": {
        "reference": "urn:uuid:6bbb8eb5-eeca-4d0c-a341-e468a60376cb"
      },
      "context": {
        "reference": "urn:uuid:115bf9ad-dc46-4f52-be5a-452f6f061744"
      },
      "authored": "2021-04-06T11:33:34+00:00",
      "item": [ {
        "linkId": "Tx61025",
        "text": "Are you so breathless that speaking more than a few words is impossible?",
        "answer": [ {
          "valueString": "no"
        } ]
      } ]
    }
  }, {
    "fullUrl": "urn:uuid:644df005-752f-4537-8d71-ead6310b57ab",
    "resource": {
      "resourceType": "Questionnaire",
      "id": "644df005-752f-4537-8d71-ead6310b57ab",
      "identifier": [ {
        "value": "59132"
      } ],
      "version": "2021-04-06T11:33:34.963Z",
      "status": "active",
      "experimental": false,
      "date": "2021-04-06T11:33:34+00:00",
      "publisher": "User ID: 'MCDONALDD' User name: 'Denzle McDonald' User skill set: 'T3'",
      "lastReviewDate": "2021-04-06",
      "subjectType": [ "Patient" ],
      "item": [ {
        "linkId": "59132",
        "prefix": "0",
        "text": "Are you so breathless that speaking more than a few words is impossible?",
        "type": "choice",
        "required": true,
        "repeats": false,
        "option": [ {
          "valueString": "yes, Selected: false"
        }, {
          "valueString": "not sure, Selected: false"
        }, {
          "valueString": "no, Selected: true"
        } ]
      } ]
    }
  }, {
    "fullUrl": "urn:uuid:1a806bc9-7224-414e-a345-31d1808fe02d",
    "resource": {
      "resourceType": "QuestionnaireResponse",
      "id": "1a806bc9-7224-414e-a345-31d1808fe02d",
      "identifier": {
        "value": "59132"
      },
      "questionnaire": {
        "reference": "urn:uuid:83e037c8-0869-4340-ad4c-11e8999d184b"
      },
      "status": "completed",
      "subject": {
        "reference": "urn:uuid:6bbb8eb5-eeca-4d0c-a341-e468a60376cb"
      },
      "context": {
        "reference": "urn:uuid:115bf9ad-dc46-4f52-be5a-452f6f061744"
      },
      "authored": "2021-04-06T11:33:34+00:00",
      "item": [ {
        "linkId": "Tx220845",
        "text": "SYSTEM_FLUPANDEMIC",
        "answer": [ {
          "valueString": "*"
        } ]
      } ]
    }
  }, {
    "fullUrl": "urn:uuid:83e037c8-0869-4340-ad4c-11e8999d184b",
    "resource": {
      "resourceType": "Questionnaire",
      "id": "83e037c8-0869-4340-ad4c-11e8999d184b",
      "identifier": [ {
        "value": "59132"
      } ],
      "version": "2021-04-06T11:33:34.963Z",
      "status": "active",
      "experimental": false,
      "date": "2021-04-06T11:33:34+00:00",
      "publisher": "User ID: 'MCDONALDD' User name: 'Denzle McDonald' User skill set: 'T3'",
      "lastReviewDate": "2021-04-06",
      "subjectType": [ "Patient" ],
      "item": [ {
        "linkId": "59132",
        "prefix": "100",
        "text": "SYSTEM_FLUPANDEMIC",
        "type": "choice",
        "required": true,
        "repeats": false,
        "option": [ {
          "valueString": "==\"pandemic\", Selected: false"
        }, {
          "valueString": "*, Selected: true"
        } ]
      } ]
    }
  }, {
    "fullUrl": "urn:uuid:956e2d2b-74c9-4e08-8be5-cf5d57c03ea2",
    "resource": {
      "resourceType": "QuestionnaireResponse",
      "id": "956e2d2b-74c9-4e08-8be5-cf5d57c03ea2",
      "identifier": {
        "value": "59132"
      },
      "questionnaire": {
        "reference": "urn:uuid:1987cce4-95ef-4ae2-a661-ff4fdb347420"
      },
      "status": "completed",
      "subject": {
        "reference": "urn:uuid:6bbb8eb5-eeca-4d0c-a341-e468a60376cb"
      },
      "context": {
        "reference": "urn:uuid:115bf9ad-dc46-4f52-be5a-452f6f061744"
      },
      "authored": "2021-04-06T11:33:34+00:00",
      "item": [ {
        "linkId": "Tx220044",
        "text": "WHAT IS SAID TO BE THE MAIN REASON FOR THIS CONTACT?",
        "answer": [ {
          "valueString": "more"
        } ]
      } ]
    }
  }, {
    "fullUrl": "urn:uuid:1987cce4-95ef-4ae2-a661-ff4fdb347420",
    "resource": {
      "resourceType": "Questionnaire",
      "id": "1987cce4-95ef-4ae2-a661-ff4fdb347420",
      "identifier": [ {
        "value": "59132"
      } ],
      "version": "2021-04-06T11:33:34.963Z",
      "status": "active",
      "experimental": false,
      "date": "2021-04-06T11:33:34+00:00",
      "publisher": "User ID: 'MCDONALDD' User name: 'Denzle McDonald' User skill set: 'T3'",
      "lastReviewDate": "2021-04-06",
      "subjectType": [ "Patient" ],
      "item": [ {
        "linkId": "59132",
        "prefix": "5000",
        "text": "WHAT IS SAID TO BE THE MAIN REASON FOR THIS CONTACT?",
        "type": "choice",
        "required": true,
        "repeats": false,
        "option": [ {
          "valueString": "a probable allergic reaction now, Selected: false"
        }, {
          "valueString": "chest or upper back pain, Selected: false"
        }, {
          "valueString": "a probable fit or seizure within the last 12 hours, Selected: false"
        }, {
          "valueString": "a suicide attempt, Selected: false"
        }, {
          "valueString": "new confusion now, Selected: false"
        }, {
          "valueString": "a probable stroke or mini stroke, Selected: false"
        }, {
          "valueString": "more, Selected: true"
        } ]
      } ]
    }
  }, {
    "fullUrl": "urn:uuid:45e0bd49-d459-41cd-99bf-6118a9ec08f0",
    "resource": {
      "resourceType": "QuestionnaireResponse",
      "id": "45e0bd49-d459-41cd-99bf-6118a9ec08f0",
      "identifier": {
        "value": "59132"
      },
      "questionnaire": {
        "reference": "urn:uuid:e857e11c-b389-4481-9c71-126aeb27336d"
      },
      "status": "completed",
      "subject": {
        "reference": "urn:uuid:6bbb8eb5-eeca-4d0c-a341-e468a60376cb"
      },
      "context": {
        "reference": "urn:uuid:115bf9ad-dc46-4f52-be5a-452f6f061744"
      },
      "authored": "2021-04-06T11:33:34+00:00",
      "item": [ {
        "linkId": "Tx223029",
        "text": "WHAT IS SAID TO BE THE MAIN REASON FOR THIS CONTACT?",
        "answer": [ {
          "valueString": "none of the above"
        } ]
      } ]
    }
  }, {
    "fullUrl": "urn:uuid:e857e11c-b389-4481-9c71-126aeb27336d",
    "resource": {
      "resourceType": "Questionnaire",
      "id": "e857e11c-b389-4481-9c71-126aeb27336d",
      "identifier": [ {
        "value": "59132"
      } ],
      "version": "2021-04-06T11:33:34.963Z",
      "status": "active",
      "experimental": false,
      "date": "2021-04-06T11:33:34+00:00",
      "publisher": "User ID: 'MCDONALDD' User name: 'Denzle McDonald' User skill set: 'T3'",
      "lastReviewDate": "2021-04-06",
      "subjectType": [ "Patient" ],
      "item": [ {
        "linkId": "59132",
        "prefix": "4100",
        "text": "WHAT IS SAID TO BE THE MAIN REASON FOR THIS CONTACT?",
        "type": "choice",
        "required": true,
        "repeats": false,
        "option": [ {
          "valueString": "a diabetic hypo (low blood sugar) or a diabetic hyper (high blood sugar), Selected: false"
        }, {
          "valueString": "recovery from an ICD (implanted cardioverter defibrillator) shock, Selected: false"
        }, {
          "valueString": "none of the above, Selected: true"
        } ]
      } ]
    }
  }, {
    "fullUrl": "urn:uuid:9af2c150-efb8-4bbf-a41c-87dc75797f42",
    "resource": {
      "resourceType": "QuestionnaireResponse",
      "id": "9af2c150-efb8-4bbf-a41c-87dc75797f42",
      "identifier": {
        "value": "59132"
      },
      "questionnaire": {
        "reference": "urn:uuid:1afde395-48c6-44d5-b6c1-85012e270ecc"
      },
      "status": "completed",
      "subject": {
        "reference": "urn:uuid:6bbb8eb5-eeca-4d0c-a341-e468a60376cb"
      },
      "context": {
        "reference": "urn:uuid:115bf9ad-dc46-4f52-be5a-452f6f061744"
      },
      "authored": "2021-04-06T11:33:34+00:00",
      "item": [ {
        "linkId": "Tx223142",
        "text": "Does the skin on the chest, back or abdomen feel a normal temperature?",
        "answer": [ {
          "valueString": "yes - normal, warm or hot"
        } ]
      } ]
    }
  }, {
    "fullUrl": "urn:uuid:1afde395-48c6-44d5-b6c1-85012e270ecc",
    "resource": {
      "resourceType": "Questionnaire",
      "id": "1afde395-48c6-44d5-b6c1-85012e270ecc",
      "identifier": [ {
        "value": "59132"
      } ],
      "version": "2021-04-06T11:33:34.963Z",
      "status": "active",
      "experimental": false,
      "date": "2021-04-06T11:33:34+00:00",
      "publisher": "User ID: 'MCDONALDD' User name: 'Denzle McDonald' User skill set: 'T3'",
      "lastReviewDate": "2021-04-06",
      "subjectType": [ "Patient" ],
      "item": [ {
        "linkId": "59132",
        "prefix": "4400",
        "text": "Does the skin on the chest, back or abdomen feel a normal temperature?",
        "type": "choice",
        "required": true,
        "repeats": false,
        "option": [ {
          "valueString": "yes - normal, warm or hot, Selected: true"
        }, {
          "valueString": "not sure, Selected: false"
        }, {
          "valueString": "no - cool OR cold, Selected: false"
        }, {
          "valueString": "not safe to touch, Selected: false"
        } ]
      } ]
    }
  }, {
    "fullUrl": "urn:uuid:8fe0ffda-1a81-45fb-bd90-d59eed92e132",
    "resource": {
      "resourceType": "QuestionnaireResponse",
      "id": "8fe0ffda-1a81-45fb-bd90-d59eed92e132",
      "identifier": {
        "value": "59132"
      },
      "questionnaire": {
        "reference": "urn:uuid:620f6895-e8f6-41a5-b3ac-29aa89ec9b1e"
      },
      "status": "completed",
      "subject": {
        "reference": "urn:uuid:6bbb8eb5-eeca-4d0c-a341-e468a60376cb"
      },
      "context": {
        "reference": "urn:uuid:115bf9ad-dc46-4f52-be5a-452f6f061744"
      },
      "authored": "2021-04-06T11:33:34+00:00",
      "item": [ {
        "linkId": "Tx221724",
        "text": "STRING:ShockAsked",
        "answer": [ {
          "valueString": "\"present\""
        } ]
      } ]
    }
  }, {
    "fullUrl": "urn:uuid:620f6895-e8f6-41a5-b3ac-29aa89ec9b1e",
    "resource": {
      "resourceType": "Questionnaire",
      "id": "620f6895-e8f6-41a5-b3ac-29aa89ec9b1e",
      "identifier": [ {
        "value": "59132"
      } ],
      "version": "2021-04-06T11:33:34.963Z",
      "status": "active",
      "experimental": false,
      "date": "2021-04-06T11:33:34+00:00",
      "publisher": "User ID: 'MCDONALDD' User name: 'Denzle McDonald' User skill set: 'T3'",
      "lastReviewDate": "2021-04-06",
      "subjectType": [ "Patient" ],
      "item": [ {
        "linkId": "59132",
        "prefix": "3300",
        "text": "STRING:ShockAsked",
        "type": "choice",
        "required": true,
        "repeats": false,
        "option": [ {
          "valueString": "\"present\", Selected: true"
        } ]
      } ]
    }
  }, {
    "fullUrl": "urn:uuid:02440884-c6b8-4660-a1cb-2935a4190a27",
    "resource": {
      "resourceType": "QuestionnaireResponse",
      "id": "02440884-c6b8-4660-a1cb-2935a4190a27",
      "identifier": {
        "value": "59132"
      },
      "questionnaire": {
        "reference": "urn:uuid:6f4b2a2b-ace5-4864-b04e-a851a33464bc"
      },
      "status": "completed",
      "subject": {
        "reference": "urn:uuid:6bbb8eb5-eeca-4d0c-a341-e468a60376cb"
      },
      "context": {
        "reference": "urn:uuid:115bf9ad-dc46-4f52-be5a-452f6f061744"
      },
      "authored": "2021-04-06T11:33:34+00:00"
    }
  }, {
    "fullUrl": "urn:uuid:6f4b2a2b-ace5-4864-b04e-a851a33464bc",
    "resource": {
      "resourceType": "Questionnaire",
      "id": "6f4b2a2b-ace5-4864-b04e-a851a33464bc",
      "identifier": [ {
        "value": "59132"
      } ],
      "version": "2021-04-06T11:33:34.963Z",
      "status": "active",
      "experimental": false,
      "date": "2021-04-06T11:33:34+00:00",
      "publisher": "User ID: 'MCDONALDD' User name: 'Denzle McDonald' User skill set: 'T3'",
      "lastReviewDate": "2021-04-06",
      "subjectType": [ "Patient" ]
    }
  }, {
    "fullUrl": "urn:uuid:149b9aa1-95f9-4f14-8e49-b61d7320ef7b",
    "resource": {
      "resourceType": "QuestionnaireResponse",
      "id": "149b9aa1-95f9-4f14-8e49-b61d7320ef7b",
      "identifier": {
        "value": "59132"
      },
      "questionnaire": {
        "reference": "urn:uuid:49286de2-5ab8-48cd-b7ee-f3fd542f5e25"
      },
      "status": "completed",
      "subject": {
        "reference": "urn:uuid:6bbb8eb5-eeca-4d0c-a341-e468a60376cb"
      },
      "context": {
        "reference": "urn:uuid:115bf9ad-dc46-4f52-be5a-452f6f061744"
      },
      "authored": "2021-04-06T11:33:34+00:00",
      "item": [ {
        "linkId": "Tx223272",
        "text": "SYSTEM_VHF",
        "answer": [ {
          "valueString": "*"
        } ]
      } ]
    }
  }, {
    "fullUrl": "urn:uuid:49286de2-5ab8-48cd-b7ee-f3fd542f5e25",
    "resource": {
      "resourceType": "Questionnaire",
      "id": "49286de2-5ab8-48cd-b7ee-f3fd542f5e25",
      "identifier": [ {
        "value": "59132"
      } ],
      "version": "2021-04-06T11:33:34.963Z",
      "status": "active",
      "experimental": false,
      "date": "2021-04-06T11:33:34+00:00",
      "publisher": "User ID: 'MCDONALDD' User name: 'Denzle McDonald' User skill set: 'T3'",
      "lastReviewDate": "2021-04-06",
      "subjectType": [ "Patient" ],
      "item": [ {
        "linkId": "59132",
        "prefix": "0",
        "text": "SYSTEM_VHF",
        "type": "choice",
        "required": true,
        "repeats": false,
        "option": [ {
          "valueString": "==\"vhf\", Selected: false"
        }, {
          "valueString": "*, Selected: true"
        } ]
      } ]
    }
  }, {
    "fullUrl": "urn:uuid:323f607e-1af0-4798-9892-69ca4bd7dc80",
    "resource": {
      "resourceType": "QuestionnaireResponse",
      "id": "323f607e-1af0-4798-9892-69ca4bd7dc80",
      "identifier": {
        "value": "59132"
      },
      "questionnaire": {
        "reference": "urn:uuid:5b24c470-aee0-40fd-929a-fd80fbc7ea80"
      },
      "status": "completed",
      "subject": {
        "reference": "urn:uuid:6bbb8eb5-eeca-4d0c-a341-e468a60376cb"
      },
      "context": {
        "reference": "urn:uuid:115bf9ad-dc46-4f52-be5a-452f6f061744"
      },
      "authored": "2021-04-06T11:33:34+00:00",
      "item": [ {
        "linkId": "Tx222416",
        "text": "Have you actually vomited?",
        "answer": [ {
          "valueString": "no"
        } ]
      } ]
    }
  }, {
    "fullUrl": "urn:uuid:5b24c470-aee0-40fd-929a-fd80fbc7ea80",
    "resource": {
      "resourceType": "Questionnaire",
      "id": "5b24c470-aee0-40fd-929a-fd80fbc7ea80",
      "identifier": [ {
        "value": "59132"
      } ],
      "version": "2021-04-06T11:33:34.963Z",
      "status": "active",
      "experimental": false,
      "date": "2021-04-06T11:33:34+00:00",
      "publisher": "User ID: 'MCDONALDD' User name: 'Denzle McDonald' User skill set: 'T3'",
      "lastReviewDate": "2021-04-06",
      "subjectType": [ "Patient" ],
      "item": [ {
        "linkId": "59132",
        "prefix": "30400",
        "text": "Have you actually vomited?",
        "type": "choice",
        "required": true,
        "repeats": false,
        "option": [ {
          "valueString": "yes, Selected: false"
        }, {
          "valueString": "not sure, Selected: false"
        }, {
          "valueString": "no, Selected: true"
        } ]
      } ]
    }
  }, {
    "fullUrl": "urn:uuid:9f65e2fc-b727-4cf5-a785-84255d9c6af7",
    "resource": {
      "resourceType": "QuestionnaireResponse",
      "id": "9f65e2fc-b727-4cf5-a785-84255d9c6af7",
      "identifier": {
        "value": "59132"
      },
      "questionnaire": {
        "reference": "urn:uuid:0bc0fa75-165c-40b5-a5f1-b1b52ea1710d"
      },
      "status": "completed",
      "subject": {
        "reference": "urn:uuid:6bbb8eb5-eeca-4d0c-a341-e468a60376cb"
      },
      "context": {
        "reference": "urn:uuid:115bf9ad-dc46-4f52-be5a-452f6f061744"
      },
      "authored": "2021-04-06T11:33:34+00:00",
      "item": [ {
        "linkId": "Tx220964",
        "text": "Have you got diarrhoea as well?",
        "answer": [ {
          "valueString": "no"
        } ]
      } ]
    }
  }, {
    "fullUrl": "urn:uuid:0bc0fa75-165c-40b5-a5f1-b1b52ea1710d",
    "resource": {
      "resourceType": "Questionnaire",
      "id": "0bc0fa75-165c-40b5-a5f1-b1b52ea1710d",
      "identifier": [ {
        "value": "59132"
      } ],
      "version": "2021-04-06T11:33:34.963Z",
      "status": "active",
      "experimental": false,
      "date": "2021-04-06T11:33:34+00:00",
      "publisher": "User ID: 'MCDONALDD' User name: 'Denzle McDonald' User skill set: 'T3'",
      "lastReviewDate": "2021-04-06",
      "subjectType": [ "Patient" ],
      "item": [ {
        "linkId": "59132",
        "prefix": "100",
        "text": "Have you got diarrhoea as well?",
        "type": "choice",
        "required": true,
        "repeats": false,
        "option": [ {
          "valueString": "yes, Selected: false"
        }, {
          "valueString": "not sure, Selected: false"
        }, {
          "valueString": "no, Selected: true"
        } ]
      } ]
    }
  }, {
    "fullUrl": "urn:uuid:e8bf8673-cb26-43d8-a256-358bf7e8f381",
    "resource": {
      "resourceType": "QuestionnaireResponse",
      "id": "e8bf8673-cb26-43d8-a256-358bf7e8f381",
      "identifier": {
        "value": "59132"
      },
      "questionnaire": {
        "reference": "urn:uuid:43031e2f-8c97-4615-acc2-ce91094edd7f"
      },
      "status": "completed",
      "subject": {
        "reference": "urn:uuid:6bbb8eb5-eeca-4d0c-a341-e468a60376cb"
      },
      "context": {
        "reference": "urn:uuid:115bf9ad-dc46-4f52-be5a-452f6f061744"
      },
      "authored": "2021-04-06T11:33:34+00:00",
      "item": [ {
        "linkId": "Tx221277",
        "text": "Vomiting",
        "answer": [ {
          "valueString": "*"
        } ]
      } ]
    }
  }, {
    "fullUrl": "urn:uuid:43031e2f-8c97-4615-acc2-ce91094edd7f",
    "resource": {
      "resourceType": "Questionnaire",
      "id": "43031e2f-8c97-4615-acc2-ce91094edd7f",
      "identifier": [ {
        "value": "59132"
      } ],
      "version": "2021-04-06T11:33:34.963Z",
      "status": "active",
      "experimental": false,
      "date": "2021-04-06T11:33:34+00:00",
      "publisher": "User ID: 'MCDONALDD' User name: 'Denzle McDonald' User skill set: 'T3'",
      "lastReviewDate": "2021-04-06",
      "subjectType": [ "Patient" ],
      "item": [ {
        "linkId": "59132",
        "prefix": "400",
        "text": "Vomiting",
        "type": "choice",
        "required": true,
        "repeats": false,
        "option": [ {
          "valueString": "==\"present\", Selected: false"
        }, {
          "valueString": "*, Selected: true"
        } ]
      } ]
    }
  }, {
    "fullUrl": "urn:uuid:87cd2780-4670-4dfd-a7a0-93aa6893014d",
    "resource": {
      "resourceType": "QuestionnaireResponse",
      "id": "87cd2780-4670-4dfd-a7a0-93aa6893014d",
      "identifier": {
        "value": "59132"
      },
      "questionnaire": {
        "reference": "urn:uuid:833e9038-ea9d-4607-88d5-ca1f5660a5f9"
      },
      "status": "completed",
      "subject": {
        "reference": "urn:uuid:6bbb8eb5-eeca-4d0c-a341-e468a60376cb"
      },
      "context": {
        "reference": "urn:uuid:115bf9ad-dc46-4f52-be5a-452f6f061744"
      },
      "authored": "2021-04-06T11:33:34+00:00",
      "item": [ {
        "linkId": "Tx221183",
        "text": "Did the symptoms come on after drinking alcohol?",
        "answer": [ {
          "valueString": "no"
        } ]
      } ]
    }
  }, {
    "fullUrl": "urn:uuid:833e9038-ea9d-4607-88d5-ca1f5660a5f9",
    "resource": {
      "resourceType": "Questionnaire",
      "id": "833e9038-ea9d-4607-88d5-ca1f5660a5f9",
      "identifier": [ {
        "value": "59132"
      } ],
      "version": "2021-04-06T11:33:34.963Z",
      "status": "active",
      "experimental": false,
      "date": "2021-04-06T11:33:34+00:00",
      "publisher": "User ID: 'MCDONALDD' User name: 'Denzle McDonald' User skill set: 'T3'",
      "lastReviewDate": "2021-04-06",
      "subjectType": [ "Patient" ],
      "item": [ {
        "linkId": "59132",
        "prefix": "300",
        "text": "Did the symptoms come on after drinking alcohol?",
        "type": "choice",
        "required": true,
        "repeats": false,
        "option": [ {
          "valueString": "yes, Selected: false"
        }, {
          "valueString": "not sure, Selected: false"
        }, {
          "valueString": "no, Selected: true"
        } ]
      } ]
    }
  }, {
    "fullUrl": "urn:uuid:635b594c-ac07-4af6-a765-4957f6612fa3",
    "resource": {
      "resourceType": "QuestionnaireResponse",
      "id": "635b594c-ac07-4af6-a765-4957f6612fa3",
      "identifier": {
        "value": "59132"
      },
      "questionnaire": {
        "reference": "urn:uuid:4eeb8b52-e393-44f8-8cb5-96a4078317a9"
      },
      "status": "completed",
      "subject": {
        "reference": "urn:uuid:6bbb8eb5-eeca-4d0c-a341-e468a60376cb"
      },
      "context": {
        "reference": "urn:uuid:115bf9ad-dc46-4f52-be5a-452f6f061744"
      },
      "authored": "2021-04-06T11:33:34+00:00",
      "item": [ {
        "linkId": "Tx221277",
        "text": "Vomiting",
        "answer": [ {
          "valueString": "*"
        } ]
      } ]
    }
  }, {
    "fullUrl": "urn:uuid:4eeb8b52-e393-44f8-8cb5-96a4078317a9",
    "resource": {
      "resourceType": "Questionnaire",
      "id": "4eeb8b52-e393-44f8-8cb5-96a4078317a9",
      "identifier": [ {
        "value": "59132"
      } ],
      "version": "2021-04-06T11:33:34.963Z",
      "status": "active",
      "experimental": false,
      "date": "2021-04-06T11:33:34+00:00",
      "publisher": "User ID: 'MCDONALDD' User name: 'Denzle McDonald' User skill set: 'T3'",
      "lastReviewDate": "2021-04-06",
      "subjectType": [ "Patient" ],
      "item": [ {
        "linkId": "59132",
        "prefix": "1000",
        "text": "Vomiting",
        "type": "choice",
        "required": true,
        "repeats": false,
        "option": [ {
          "valueString": "==\"present\", Selected: false"
        }, {
          "valueString": "*, Selected: true"
        } ]
      } ]
    }
  }, {
    "fullUrl": "urn:uuid:58a72209-a1ed-4a27-bd02-ad61ccc35d2c",
    "resource": {
      "resourceType": "QuestionnaireResponse",
      "id": "58a72209-a1ed-4a27-bd02-ad61ccc35d2c",
      "identifier": {
        "value": "59132"
      },
      "questionnaire": {
        "reference": "urn:uuid:b45a6614-a231-49a5-8f62-f22ebbdae8ff"
      },
      "status": "completed",
      "subject": {
        "reference": "urn:uuid:6bbb8eb5-eeca-4d0c-a341-e468a60376cb"
      },
      "context": {
        "reference": "urn:uuid:115bf9ad-dc46-4f52-be5a-452f6f061744"
      },
      "authored": "2021-04-06T11:33:34+00:00",
      "item": [ {
        "linkId": "Tx220825",
        "text": "Have you also got any pain in the abdomen?",
        "answer": [ {
          "valueString": "yes"
        } ]
      } ]
    }
  }, {
    "fullUrl": "urn:uuid:b45a6614-a231-49a5-8f62-f22ebbdae8ff",
    "resource": {
      "resourceType": "Questionnaire",
      "id": "b45a6614-a231-49a5-8f62-f22ebbdae8ff",
      "identifier": [ {
        "value": "59132"
      } ],
      "version": "2021-04-06T11:33:34.963Z",
      "status": "active",
      "experimental": false,
      "date": "2021-04-06T11:33:34+00:00",
      "publisher": "User ID: 'MCDONALDD' User name: 'Denzle McDonald' User skill set: 'T3'",
      "lastReviewDate": "2021-04-06",
      "subjectType": [ "Patient" ],
      "item": [ {
        "linkId": "59132",
        "prefix": "1500",
        "text": "Have you also got any pain in the abdomen?",
        "type": "choice",
        "required": true,
        "repeats": false,
        "option": [ {
          "valueString": "yes, Selected: true"
        }, {
          "valueString": "not sure, Selected: false"
        }, {
          "valueString": "no, Selected: false"
        } ]
      } ]
    }
  }, {
    "fullUrl": "urn:uuid:6faca857-28fd-40ea-928b-264f501cb8f7",
    "resource": {
      "resourceType": "QuestionnaireResponse",
      "id": "6faca857-28fd-40ea-928b-264f501cb8f7",
      "identifier": {
        "value": "59132"
      },
      "questionnaire": {
        "reference": "urn:uuid:b08f6b45-b33d-4729-86d3-ca472717f588"
      },
      "status": "completed",
      "subject": {
        "reference": "urn:uuid:6bbb8eb5-eeca-4d0c-a341-e468a60376cb"
      },
      "context": {
        "reference": "urn:uuid:115bf9ad-dc46-4f52-be5a-452f6f061744"
      },
      "authored": "2021-04-06T11:33:34+00:00",
      "item": [ {
        "linkId": "Tx224927",
        "text": "STRING:VomitingAnd/OrNauseaWithAbdominalPainPW",
        "answer": [ {
          "valueString": "\"present\""
        } ]
      } ]
    }
  }, {
    "fullUrl": "urn:uuid:b08f6b45-b33d-4729-86d3-ca472717f588",
    "resource": {
      "resourceType": "Questionnaire",
      "id": "b08f6b45-b33d-4729-86d3-ca472717f588",
      "identifier": [ {
        "value": "59132"
      } ],
      "version": "2021-04-06T11:33:34.963Z",
      "status": "active",
      "experimental": false,
      "date": "2021-04-06T11:33:34+00:00",
      "publisher": "User ID: 'MCDONALDD' User name: 'Denzle McDonald' User skill set: 'T3'",
      "lastReviewDate": "2021-04-06",
      "subjectType": [ "Patient" ],
      "item": [ {
        "linkId": "59132",
        "prefix": "64600",
        "text": "STRING:VomitingAnd/OrNauseaWithAbdominalPainPW",
        "type": "choice",
        "required": true,
        "repeats": false,
        "option": [ {
          "valueString": "\"present\", Selected: true"
        } ]
      } ]
    }
  }, {
    "fullUrl": "urn:uuid:509ccf39-fc0a-4661-b3ff-dce5e654c853",
    "resource": {
      "resourceType": "QuestionnaireResponse",
      "id": "509ccf39-fc0a-4661-b3ff-dce5e654c853",
      "identifier": {
        "value": "59132"
      },
      "questionnaire": {
        "reference": "urn:uuid:ec21ac4c-f33d-44bf-8753-cb1101988263"
      },
      "status": "completed",
      "subject": {
        "reference": "urn:uuid:6bbb8eb5-eeca-4d0c-a341-e468a60376cb"
      },
      "context": {
        "reference": "urn:uuid:115bf9ad-dc46-4f52-be5a-452f6f061744"
      },
      "authored": "2021-04-06T11:33:34+00:00",
      "item": [ {
        "linkId": "Tx224907",
        "text": "STRING:GITSymptomWithAbdominalPain",
        "answer": [ {
          "valueString": "\"present\""
        } ]
      } ]
    }
  }, {
    "fullUrl": "urn:uuid:ec21ac4c-f33d-44bf-8753-cb1101988263",
    "resource": {
      "resourceType": "Questionnaire",
      "id": "ec21ac4c-f33d-44bf-8753-cb1101988263",
      "identifier": [ {
        "value": "59132"
      } ],
      "version": "2021-04-06T11:33:34.963Z",
      "status": "active",
      "experimental": false,
      "date": "2021-04-06T11:33:34+00:00",
      "publisher": "User ID: 'MCDONALDD' User name: 'Denzle McDonald' User skill set: 'T3'",
      "lastReviewDate": "2021-04-06",
      "subjectType": [ "Patient" ],
      "item": [ {
        "linkId": "59132",
        "prefix": "64700",
        "text": "STRING:GITSymptomWithAbdominalPain",
        "type": "choice",
        "required": true,
        "repeats": false,
        "option": [ {
          "valueString": "\"present\", Selected: true"
        } ]
      } ]
    }
  }, {
    "fullUrl": "urn:uuid:0fe7d5bd-bf97-47a0-87b0-5bcd5bb9e461",
    "resource": {
      "resourceType": "QuestionnaireResponse",
      "id": "0fe7d5bd-bf97-47a0-87b0-5bcd5bb9e461",
      "identifier": {
        "value": "59132"
      },
      "questionnaire": {
        "reference": "urn:uuid:6ef74217-ed9c-45a8-a604-4c1f0f1bd311"
      },
      "status": "completed",
      "subject": {
        "reference": "urn:uuid:6bbb8eb5-eeca-4d0c-a341-e468a60376cb"
      },
      "context": {
        "reference": "urn:uuid:115bf9ad-dc46-4f52-be5a-452f6f061744"
      },
      "authored": "2021-04-06T11:33:34+00:00"
    }
  }, {
    "fullUrl": "urn:uuid:6ef74217-ed9c-45a8-a604-4c1f0f1bd311",
    "resource": {
      "resourceType": "Questionnaire",
      "id": "6ef74217-ed9c-45a8-a604-4c1f0f1bd311",
      "identifier": [ {
        "value": "59132"
      } ],
      "version": "2021-04-06T11:33:34.963Z",
      "status": "active",
      "experimental": false,
      "date": "2021-04-06T11:33:34+00:00",
      "publisher": "User ID: 'MCDONALDD' User name: 'Denzle McDonald' User skill set: 'T3'",
      "lastReviewDate": "2021-04-06",
      "subjectType": [ "Patient" ]
    }
  }, {
    "fullUrl": "urn:uuid:97e79db7-3506-4f98-b5fa-4ec660c50679",
    "resource": {
      "resourceType": "QuestionnaireResponse",
      "id": "97e79db7-3506-4f98-b5fa-4ec660c50679",
      "identifier": {
        "value": "59132"
      },
      "questionnaire": {
        "reference": "urn:uuid:8fbad1c7-f804-4c37-b1e4-e7aa39eb8fdd"
      },
      "status": "completed",
      "subject": {
        "reference": "urn:uuid:6bbb8eb5-eeca-4d0c-a341-e468a60376cb"
      },
      "context": {
        "reference": "urn:uuid:115bf9ad-dc46-4f52-be5a-452f6f061744"
      },
      "authored": "2021-04-06T11:33:34+00:00",
      "item": [ {
        "linkId": "Tx221039",
        "text": "PATIENT_AGEGROUP",
        "answer": [ {
          "valueString": "==\"CHILD\""
        } ]
      } ]
    }
  }, {
    "fullUrl": "urn:uuid:8fbad1c7-f804-4c37-b1e4-e7aa39eb8fdd",
    "resource": {
      "resourceType": "Questionnaire",
      "id": "8fbad1c7-f804-4c37-b1e4-e7aa39eb8fdd",
      "identifier": [ {
        "value": "59132"
      } ],
      "version": "2021-04-06T11:33:34.963Z",
      "status": "active",
      "experimental": false,
      "date": "2021-04-06T11:33:34+00:00",
      "publisher": "User ID: 'MCDONALDD' User name: 'Denzle McDonald' User skill set: 'T3'",
      "lastReviewDate": "2021-04-06",
      "subjectType": [ "Patient" ],
      "item": [ {
        "linkId": "59132",
        "prefix": "0",
        "text": "PATIENT_AGEGROUP",
        "type": "choice",
        "required": true,
        "repeats": false,
        "option": [ {
          "valueString": "==\"ADULT\", Selected: false"
        }, {
          "valueString": "==\"CHILD\", Selected: true"
        }, {
          "valueString": "==\"TODDLER\", Selected: false"
        }, {
          "valueString": "==\"INFANT\", Selected: false"
        }, {
          "valueString": "==\"NEONATE\", Selected: false"
        }, {
          "valueString": "*, Selected: false"
        } ]
      } ]
    }
  }, {
    "fullUrl": "urn:uuid:bff7f441-e039-4673-a63a-bbf5ee7f6b0a",
    "resource": {
      "resourceType": "QuestionnaireResponse",
      "id": "bff7f441-e039-4673-a63a-bbf5ee7f6b0a",
      "identifier": {
        "value": "59132"
      },
      "questionnaire": {
        "reference": "urn:uuid:65b44873-8bcb-4b91-9784-4f6b91d97963"
      },
      "status": "completed",
      "subject": {
        "reference": "urn:uuid:6bbb8eb5-eeca-4d0c-a341-e468a60376cb"
      },
      "context": {
        "reference": "urn:uuid:115bf9ad-dc46-4f52-be5a-452f6f061744"
      },
      "authored": "2021-04-06T11:33:34+00:00",
      "item": [ {
        "linkId": "Tx224919",
        "text": "PATIENT_AGE",
        "answer": [ {
          "valueString": "<11"
        } ]
      } ]
    }
  }, {
    "fullUrl": "urn:uuid:65b44873-8bcb-4b91-9784-4f6b91d97963",
    "resource": {
      "resourceType": "Questionnaire",
      "id": "65b44873-8bcb-4b91-9784-4f6b91d97963",
      "identifier": [ {
        "value": "59132"
      } ],
      "version": "2021-04-06T11:33:34.963Z",
      "status": "active",
      "experimental": false,
      "date": "2021-04-06T11:33:34+00:00",
      "publisher": "User ID: 'MCDONALDD' User name: 'Denzle McDonald' User skill set: 'T3'",
      "lastReviewDate": "2021-04-06",
      "subjectType": [ "Patient" ],
      "item": [ {
        "linkId": "59132",
        "prefix": "15300",
        "text": "PATIENT_AGE",
        "type": "choice",
        "required": true,
        "repeats": false,
        "option": [ {
          "valueString": "<11, Selected: true"
        }, {
          "valueString": "<13, Selected: false"
        }, {
          "valueString": ">=13, Selected: false"
        }, {
          "valueString": "*, Selected: false"
        } ]
      } ]
    }
  }, {
    "fullUrl": "urn:uuid:6108dcf8-f255-422b-a20f-4855810c3b6d",
    "resource": {
      "resourceType": "QuestionnaireResponse",
      "id": "6108dcf8-f255-422b-a20f-4855810c3b6d",
      "identifier": {
        "value": "59132"
      },
      "questionnaire": {
        "reference": "urn:uuid:7e011e7f-39e7-48c7-8498-4fa6581b866b"
      },
      "status": "completed",
      "subject": {
        "reference": "urn:uuid:6bbb8eb5-eeca-4d0c-a341-e468a60376cb"
      },
      "context": {
        "reference": "urn:uuid:115bf9ad-dc46-4f52-be5a-452f6f061744"
      },
      "authored": "2021-04-06T11:33:34+00:00",
      "item": [ {
        "linkId": "Tx224498",
        "text": "STRING:Under11",
        "answer": [ {
          "valueString": "\"present\""
        } ]
      } ]
    }
  }, {
    "fullUrl": "urn:uuid:7e011e7f-39e7-48c7-8498-4fa6581b866b",
    "resource": {
      "resourceType": "Questionnaire",
      "id": "7e011e7f-39e7-48c7-8498-4fa6581b866b",
      "identifier": [ {
        "value": "59132"
      } ],
      "version": "2021-04-06T11:33:34.963Z",
      "status": "active",
      "experimental": false,
      "date": "2021-04-06T11:33:34+00:00",
      "publisher": "User ID: 'MCDONALDD' User name: 'Denzle McDonald' User skill set: 'T3'",
      "lastReviewDate": "2021-04-06",
      "subjectType": [ "Patient" ],
      "item": [ {
        "linkId": "59132",
        "prefix": "14800",
        "text": "STRING:Under11",
        "type": "choice",
        "required": true,
        "repeats": false,
        "option": [ {
          "valueString": "\"present\", Selected: true"
        } ]
      } ]
    }
  }, {
    "fullUrl": "urn:uuid:45a8e4c4-c0f9-4f19-8587-312244294d92",
    "resource": {
      "resourceType": "QuestionnaireResponse",
      "id": "45a8e4c4-c0f9-4f19-8587-312244294d92",
      "identifier": {
        "value": "59132"
      },
      "questionnaire": {
        "reference": "urn:uuid:b339bd3c-d228-4c66-8e14-644a48e8e480"
      },
      "status": "completed",
      "subject": {
        "reference": "urn:uuid:6bbb8eb5-eeca-4d0c-a341-e468a60376cb"
      },
      "context": {
        "reference": "urn:uuid:115bf9ad-dc46-4f52-be5a-452f6f061744"
      },
      "authored": "2021-04-06T11:33:34+00:00",
      "item": [ {
        "linkId": "Tx224906",
        "text": "AbdominalPainPW",
        "answer": [ {
          "valueString": "*"
        } ]
      } ]
    }
  }, {
    "fullUrl": "urn:uuid:b339bd3c-d228-4c66-8e14-644a48e8e480",
    "resource": {
      "resourceType": "Questionnaire",
      "id": "b339bd3c-d228-4c66-8e14-644a48e8e480",
      "identifier": [ {
        "value": "59132"
      } ],
      "version": "2021-04-06T11:33:34.963Z",
      "status": "active",
      "experimental": false,
      "date": "2021-04-06T11:33:34+00:00",
      "publisher": "User ID: 'MCDONALDD' User name: 'Denzle McDonald' User skill set: 'T3'",
      "lastReviewDate": "2021-04-06",
      "subjectType": [ "Patient" ],
      "item": [ {
        "linkId": "59132",
        "prefix": "15600",
        "text": "AbdominalPainPW",
        "type": "choice",
        "required": true,
        "repeats": false,
        "option": [ {
          "valueString": "==\"present\", Selected: false"
        }, {
          "valueString": "*, Selected: true"
        } ]
      } ]
    }
  }, {
    "fullUrl": "urn:uuid:554aac57-9fe3-44a5-871c-19f0fe58b430",
    "resource": {
      "resourceType": "QuestionnaireResponse",
      "id": "554aac57-9fe3-44a5-871c-19f0fe58b430",
      "identifier": {
        "value": "59132"
      },
      "questionnaire": {
        "reference": "urn:uuid:633b11dd-6c56-4a60-898d-641d33d318e0"
      },
      "status": "completed",
      "subject": {
        "reference": "urn:uuid:6bbb8eb5-eeca-4d0c-a341-e468a60376cb"
      },
      "context": {
        "reference": "urn:uuid:115bf9ad-dc46-4f52-be5a-452f6f061744"
      },
      "authored": "2021-04-06T11:33:34+00:00",
      "item": [ {
        "linkId": "Tx225151",
        "text": "RectalBleedingwithAbdominalPainPW",
        "answer": [ {
          "valueString": "*"
        } ]
      } ]
    }
  }, {
    "fullUrl": "urn:uuid:633b11dd-6c56-4a60-898d-641d33d318e0",
    "resource": {
      "resourceType": "Questionnaire",
      "id": "633b11dd-6c56-4a60-898d-641d33d318e0",
      "identifier": [ {
        "value": "59132"
      } ],
      "version": "2021-04-06T11:33:34.963Z",
      "status": "active",
      "experimental": false,
      "date": "2021-04-06T11:33:34+00:00",
      "publisher": "User ID: 'MCDONALDD' User name: 'Denzle McDonald' User skill set: 'T3'",
      "lastReviewDate": "2021-04-06",
      "subjectType": [ "Patient" ],
      "item": [ {
        "linkId": "59132",
        "prefix": "21300",
        "text": "RectalBleedingwithAbdominalPainPW",
        "type": "choice",
        "required": true,
        "repeats": false,
        "option": [ {
          "valueString": "==\"present\", Selected: false"
        }, {
          "valueString": "*, Selected: true"
        } ]
      } ]
    }
  }, {
    "fullUrl": "urn:uuid:2a7b0a68-61f5-482a-b62f-8db803216ff7",
    "resource": {
      "resourceType": "QuestionnaireResponse",
      "id": "2a7b0a68-61f5-482a-b62f-8db803216ff7",
      "identifier": {
        "value": "59132"
      },
      "questionnaire": {
        "reference": "urn:uuid:3aa1e8c3-e9be-4e50-95fb-fc82115c600b"
      },
      "status": "completed",
      "subject": {
        "reference": "urn:uuid:6bbb8eb5-eeca-4d0c-a341-e468a60376cb"
      },
      "context": {
        "reference": "urn:uuid:115bf9ad-dc46-4f52-be5a-452f6f061744"
      },
      "authored": "2021-04-06T11:33:34+00:00",
      "item": [ {
        "linkId": "Tx224908",
        "text": "GITSymptomWithAbdominalPain",
        "answer": [ {
          "valueString": "==\"present\""
        } ]
      } ]
    }
  }, {
    "fullUrl": "urn:uuid:3aa1e8c3-e9be-4e50-95fb-fc82115c600b",
    "resource": {
      "resourceType": "Questionnaire",
      "id": "3aa1e8c3-e9be-4e50-95fb-fc82115c600b",
      "identifier": [ {
        "value": "59132"
      } ],
      "version": "2021-04-06T11:33:34.963Z",
      "status": "active",
      "experimental": false,
      "date": "2021-04-06T11:33:34+00:00",
      "publisher": "User ID: 'MCDONALDD' User name: 'Denzle McDonald' User skill set: 'T3'",
      "lastReviewDate": "2021-04-06",
      "subjectType": [ "Patient" ],
      "item": [ {
        "linkId": "59132",
        "prefix": "15700",
        "text": "GITSymptomWithAbdominalPain",
        "type": "choice",
        "required": true,
        "repeats": false,
        "option": [ {
          "valueString": "==\"present\", Selected: true"
        }, {
          "valueString": "*, Selected: false"
        } ]
      } ]
    }
  }, {
    "fullUrl": "urn:uuid:08063d7f-8980-4aaa-80d5-fe651e2383e9",
    "resource": {
      "resourceType": "QuestionnaireResponse",
      "id": "08063d7f-8980-4aaa-80d5-fe651e2383e9",
      "identifier": {
        "value": "59132"
      },
      "questionnaire": {
        "reference": "urn:uuid:d146e6af-0f79-4240-8ea0-f087836932cd"
      },
      "status": "completed",
      "subject": {
        "reference": "urn:uuid:6bbb8eb5-eeca-4d0c-a341-e468a60376cb"
      },
      "context": {
        "reference": "urn:uuid:115bf9ad-dc46-4f52-be5a-452f6f061744"
      },
      "authored": "2021-04-06T11:33:34+00:00"
    }
  }, {
    "fullUrl": "urn:uuid:d146e6af-0f79-4240-8ea0-f087836932cd",
    "resource": {
      "resourceType": "Questionnaire",
      "id": "d146e6af-0f79-4240-8ea0-f087836932cd",
      "identifier": [ {
        "value": "59132"
      } ],
      "version": "2021-04-06T11:33:34.963Z",
      "status": "active",
      "experimental": false,
      "date": "2021-04-06T11:33:34+00:00",
      "publisher": "User ID: 'MCDONALDD' User name: 'Denzle McDonald' User skill set: 'T3'",
      "lastReviewDate": "2021-04-06",
      "subjectType": [ "Patient" ]
    }
  }, {
    "fullUrl": "urn:uuid:d5f7466d-89e0-4654-8b06-ff732b478132",
    "resource": {
      "resourceType": "QuestionnaireResponse",
      "id": "d5f7466d-89e0-4654-8b06-ff732b478132",
      "identifier": {
        "value": "59132"
      },
      "questionnaire": {
        "reference": "urn:uuid:e63b38da-287c-4921-9d1a-7515cb796faa"
      },
      "status": "completed",
      "subject": {
        "reference": "urn:uuid:6bbb8eb5-eeca-4d0c-a341-e468a60376cb"
      },
      "context": {
        "reference": "urn:uuid:115bf9ad-dc46-4f52-be5a-452f6f061744"
      },
      "authored": "2021-04-06T11:33:34+00:00",
      "item": [ {
        "linkId": "Tx221039",
        "text": "PATIENT_AGEGROUP",
        "answer": [ {
          "valueString": "==\"CHILD\""
        } ]
      } ]
    }
  }, {
    "fullUrl": "urn:uuid:e63b38da-287c-4921-9d1a-7515cb796faa",
    "resource": {
      "resourceType": "Questionnaire",
      "id": "e63b38da-287c-4921-9d1a-7515cb796faa",
      "identifier": [ {
        "value": "59132"
      } ],
      "version": "2021-04-06T11:33:34.963Z",
      "status": "active",
      "experimental": false,
      "date": "2021-04-06T11:33:34+00:00",
      "publisher": "User ID: 'MCDONALDD' User name: 'Denzle McDonald' User skill set: 'T3'",
      "lastReviewDate": "2021-04-06",
      "subjectType": [ "Patient" ],
      "item": [ {
        "linkId": "59132",
        "prefix": "0",
        "text": "PATIENT_AGEGROUP",
        "type": "choice",
        "required": true,
        "repeats": false,
        "option": [ {
          "valueString": "==\"ADULT\", Selected: false"
        }, {
          "valueString": "==\"CHILD\", Selected: true"
        }, {
          "valueString": "==\"TODDLER\", Selected: false"
        }, {
          "valueString": "==\"INFANT\", Selected: false"
        }, {
          "valueString": "==\"NEONATE\", Selected: false"
        }, {
          "valueString": "*, Selected: false"
        } ]
      } ]
    }
  }, {
    "fullUrl": "urn:uuid:b0978f92-a72a-43d6-836d-079ab6116263",
    "resource": {
      "resourceType": "QuestionnaireResponse",
      "id": "b0978f92-a72a-43d6-836d-079ab6116263",
      "identifier": {
        "value": "59132"
      },
      "questionnaire": {
        "reference": "urn:uuid:dbab699f-2509-4cad-b9e6-48774c698b0c"
      },
      "status": "completed",
      "subject": {
        "reference": "urn:uuid:6bbb8eb5-eeca-4d0c-a341-e468a60376cb"
      },
      "context": {
        "reference": "urn:uuid:115bf9ad-dc46-4f52-be5a-452f6f061744"
      },
      "authored": "2021-04-06T11:33:34+00:00",
      "item": [ {
        "linkId": "Tx220156",
        "text": "How bad is the pain?",
        "answer": [ {
          "valueString": "bad enough to interfere with normal activity"
        } ]
      } ]
    }
  }, {
    "fullUrl": "urn:uuid:dbab699f-2509-4cad-b9e6-48774c698b0c",
    "resource": {
      "resourceType": "Questionnaire",
      "id": "dbab699f-2509-4cad-b9e6-48774c698b0c",
      "identifier": [ {
        "value": "59132"
      } ],
      "version": "2021-04-06T11:33:34.963Z",
      "status": "active",
      "experimental": false,
      "date": "2021-04-06T11:33:34+00:00",
      "publisher": "User ID: 'MCDONALDD' User name: 'Denzle McDonald' User skill set: 'T3'",
      "lastReviewDate": "2021-04-06",
      "subjectType": [ "Patient" ],
      "item": [ {
        "linkId": "59132",
        "prefix": "6500",
        "text": "How bad is the pain?",
        "type": "choice",
        "required": true,
        "repeats": false,
        "option": [ {
          "valueString": "so bad that doing anything is impossible, Selected: false"
        }, {
          "valueString": "bad enough to interfere with normal activity, Selected: true"
        }, {
          "valueString": "neither of the above, Selected: false"
        } ]
      } ]
    }
  }, {
    "fullUrl": "urn:uuid:9bc060fc-4f2c-45ea-bac2-4715c149c4e6",
    "resource": {
      "resourceType": "QuestionnaireResponse",
      "id": "9bc060fc-4f2c-45ea-bac2-4715c149c4e6",
      "identifier": {
        "value": "59132"
      },
      "questionnaire": {
        "reference": "urn:uuid:add19451-a685-4399-95f7-00119d4f84a0"
      },
      "status": "completed",
      "subject": {
        "reference": "urn:uuid:6bbb8eb5-eeca-4d0c-a341-e468a60376cb"
      },
      "context": {
        "reference": "urn:uuid:115bf9ad-dc46-4f52-be5a-452f6f061744"
      },
      "authored": "2021-04-06T11:33:34+00:00",
      "item": [ {
        "linkId": "Tx224664",
        "text": "STRING:ModeratePain",
        "answer": [ {
          "valueString": "\"present\""
        } ]
      } ]
    }
  }, {
    "fullUrl": "urn:uuid:add19451-a685-4399-95f7-00119d4f84a0",
    "resource": {
      "resourceType": "Questionnaire",
      "id": "add19451-a685-4399-95f7-00119d4f84a0",
      "identifier": [ {
        "value": "59132"
      } ],
      "version": "2021-04-06T11:33:34.963Z",
      "status": "active",
      "experimental": false,
      "date": "2021-04-06T11:33:34+00:00",
      "publisher": "User ID: 'MCDONALDD' User name: 'Denzle McDonald' User skill set: 'T3'",
      "lastReviewDate": "2021-04-06",
      "subjectType": [ "Patient" ],
      "item": [ {
        "linkId": "59132",
        "prefix": "6600",
        "text": "STRING:ModeratePain",
        "type": "choice",
        "required": true,
        "repeats": false,
        "option": [ {
          "valueString": "\"present\", Selected: true"
        } ]
      } ]
    }
  }, {
    "fullUrl": "urn:uuid:d817a376-6a8a-4a11-b94c-0504b7142935",
    "resource": {
      "resourceType": "QuestionnaireResponse",
      "id": "d817a376-6a8a-4a11-b94c-0504b7142935",
      "identifier": {
        "value": "59132"
      },
      "questionnaire": {
        "reference": "urn:uuid:1431fc0e-7986-4c61-9161-e166c2c3fede"
      },
      "status": "completed",
      "subject": {
        "reference": "urn:uuid:6bbb8eb5-eeca-4d0c-a341-e468a60376cb"
      },
      "context": {
        "reference": "urn:uuid:115bf9ad-dc46-4f52-be5a-452f6f061744"
      },
      "authored": "2021-04-06T11:33:34+00:00",
      "item": [ {
        "linkId": "Tx170003",
        "text": "PATIENT_PARTY",
        "answer": [ {
          "valueString": "==1"
        } ]
      } ]
    }
  }, {
    "fullUrl": "urn:uuid:1431fc0e-7986-4c61-9161-e166c2c3fede",
    "resource": {
      "resourceType": "Questionnaire",
      "id": "1431fc0e-7986-4c61-9161-e166c2c3fede",
      "identifier": [ {
        "value": "59132"
      } ],
      "version": "2021-04-06T11:33:34.963Z",
      "status": "active",
      "experimental": false,
      "date": "2021-04-06T11:33:34+00:00",
      "publisher": "User ID: 'MCDONALDD' User name: 'Denzle McDonald' User skill set: 'T3'",
      "lastReviewDate": "2021-04-06",
      "subjectType": [ "Patient" ],
      "item": [ {
        "linkId": "59132",
        "prefix": "6800",
        "text": "PATIENT_PARTY",
        "type": "choice",
        "required": true,
        "repeats": false,
        "option": [ {
          "valueString": "==1, Selected: true"
        }, {
          "valueString": "==3, Selected: false"
        }, {
          "valueString": "*, Selected: false"
        } ]
      } ]
    }
  }, {
    "fullUrl": "urn:uuid:9c1a47b4-b88f-41ab-9077-64529b96f8e1",
    "resource": {
      "resourceType": "QuestionnaireResponse",
      "id": "9c1a47b4-b88f-41ab-9077-64529b96f8e1",
      "identifier": {
        "value": "59132"
      },
      "questionnaire": {
        "reference": "urn:uuid:958a1efa-49c1-4ecb-891d-9083dcdebf57"
      },
      "status": "completed",
      "subject": {
        "reference": "urn:uuid:6bbb8eb5-eeca-4d0c-a341-e468a60376cb"
      },
      "context": {
        "reference": "urn:uuid:115bf9ad-dc46-4f52-be5a-452f6f061744"
      },
      "authored": "2021-04-06T11:33:34+00:00",
      "item": [ {
        "linkId": "Tx224190",
        "text": "Are you so ill that you have stopped doing ALL of your usual activities?",
        "answer": [ {
          "valueString": "no - well enough to do MOST or all activities"
        } ]
      } ]
    }
  }, {
    "fullUrl": "urn:uuid:958a1efa-49c1-4ecb-891d-9083dcdebf57",
    "resource": {
      "resourceType": "Questionnaire",
      "id": "958a1efa-49c1-4ecb-891d-9083dcdebf57",
      "identifier": [ {
        "value": "59132"
      } ],
      "version": "2021-04-06T11:33:34.963Z",
      "status": "active",
      "experimental": false,
      "date": "2021-04-06T11:33:34+00:00",
      "publisher": "User ID: 'MCDONALDD' User name: 'Denzle McDonald' User skill set: 'T3'",
      "lastReviewDate": "2021-04-06",
      "subjectType": [ "Patient" ],
      "item": [ {
        "linkId": "59132",
        "prefix": "6900",
        "text": "Are you so ill that you have stopped doing ALL of your usual activities?",
        "type": "choice",
        "required": true,
        "repeats": false,
        "option": [ {
          "valueString": "yes - so ill they have stopped doing ALL normal activities, Selected: false"
        }, {
          "valueString": "no - unwell but able to do SOME normal activities, Selected: false"
        }, {
          "valueString": "no - well enough to do MOST or all activities, Selected: true"
        } ]
      } ]
    }
  }, {
    "fullUrl": "urn:uuid:d8f98367-06ff-4077-bc00-b2892dcfd2cf",
    "resource": {
      "resourceType": "QuestionnaireResponse",
      "id": "d8f98367-06ff-4077-bc00-b2892dcfd2cf",
      "identifier": {
        "value": "59132"
      },
      "questionnaire": {
        "reference": "urn:uuid:202825e3-1085-45bf-9175-fcbf47cbb219"
      },
      "status": "completed",
      "subject": {
        "reference": "urn:uuid:6bbb8eb5-eeca-4d0c-a341-e468a60376cb"
      },
      "context": {
        "reference": "urn:uuid:115bf9ad-dc46-4f52-be5a-452f6f061744"
      },
      "authored": "2021-04-06T11:33:34+00:00",
      "item": [ {
        "linkId": "Tx224916",
        "text": "FlankPainPW",
        "answer": [ {
          "valueString": "*"
        } ]
      } ]
    }
  }, {
    "fullUrl": "urn:uuid:202825e3-1085-45bf-9175-fcbf47cbb219",
    "resource": {
      "resourceType": "Questionnaire",
      "id": "202825e3-1085-45bf-9175-fcbf47cbb219",
      "identifier": [ {
        "value": "59132"
      } ],
      "version": "2021-04-06T11:33:34.963Z",
      "status": "active",
      "experimental": false,
      "date": "2021-04-06T11:33:34+00:00",
      "publisher": "User ID: 'MCDONALDD' User name: 'Denzle McDonald' User skill set: 'T3'",
      "lastReviewDate": "2021-04-06",
      "subjectType": [ "Patient" ],
      "item": [ {
        "linkId": "59132",
        "prefix": "26500",
        "text": "FlankPainPW",
        "type": "choice",
        "required": true,
        "repeats": false,
        "option": [ {
          "valueString": "==\"present\", Selected: false"
        }, {
          "valueString": "*, Selected: true"
        } ]
      } ]
    }
  }, {
    "fullUrl": "urn:uuid:cf9ac13d-0c5e-4da2-8e63-0962c5c57a42",
    "resource": {
      "resourceType": "QuestionnaireResponse",
      "id": "cf9ac13d-0c5e-4da2-8e63-0962c5c57a42",
      "identifier": {
        "value": "59132"
      },
      "questionnaire": {
        "reference": "urn:uuid:5fd2464c-09b2-4d08-ab12-096954943de6"
      },
      "status": "completed",
      "subject": {
        "reference": "urn:uuid:6bbb8eb5-eeca-4d0c-a341-e468a60376cb"
      },
      "context": {
        "reference": "urn:uuid:115bf9ad-dc46-4f52-be5a-452f6f061744"
      },
      "authored": "2021-04-06T11:33:34+00:00",
      "item": [ {
        "linkId": "Tx222766",
        "text": "PregnancyOver20Weeks",
        "answer": [ {
          "valueString": "*"
        } ]
      } ]
    }
  }, {
    "fullUrl": "urn:uuid:5fd2464c-09b2-4d08-ab12-096954943de6",
    "resource": {
      "resourceType": "Questionnaire",
      "id": "5fd2464c-09b2-4d08-ab12-096954943de6",
      "identifier": [ {
        "value": "59132"
      } ],
      "version": "2021-04-06T11:33:34.963Z",
      "status": "active",
      "experimental": false,
      "date": "2021-04-06T11:33:34+00:00",
      "publisher": "User ID: 'MCDONALDD' User name: 'Denzle McDonald' User skill set: 'T3'",
      "lastReviewDate": "2021-04-06",
      "subjectType": [ "Patient" ],
      "item": [ {
        "linkId": "59132",
        "prefix": "16100",
        "text": "PregnancyOver20Weeks",
        "type": "choice",
        "required": true,
        "repeats": false,
        "option": [ {
          "valueString": "==\"present\", Selected: false"
        }, {
          "valueString": "*, Selected: true"
        } ]
      } ]
    }
  }, {
    "fullUrl": "urn:uuid:ab922e99-d67a-4549-8964-912e779ee220",
    "resource": {
      "resourceType": "QuestionnaireResponse",
      "id": "ab922e99-d67a-4549-8964-912e779ee220",
      "identifier": {
        "value": "59132"
      },
      "questionnaire": {
        "reference": "urn:uuid:e71c8e40-ce98-474e-b8f1-158716519576"
      },
      "status": "completed",
      "subject": {
        "reference": "urn:uuid:6bbb8eb5-eeca-4d0c-a341-e468a60376cb"
      },
      "context": {
        "reference": "urn:uuid:115bf9ad-dc46-4f52-be5a-452f6f061744"
      },
      "authored": "2021-04-06T11:33:34+00:00",
      "item": [ {
        "linkId": "Tx225151",
        "text": "RectalBleedingwithAbdominalPainPW",
        "answer": [ {
          "valueString": "*"
        } ]
      } ]
    }
  }, {
    "fullUrl": "urn:uuid:e71c8e40-ce98-474e-b8f1-158716519576",
    "resource": {
      "resourceType": "Questionnaire",
      "id": "e71c8e40-ce98-474e-b8f1-158716519576",
      "identifier": [ {
        "value": "59132"
      } ],
      "version": "2021-04-06T11:33:34.963Z",
      "status": "active",
      "experimental": false,
      "date": "2021-04-06T11:33:34+00:00",
      "publisher": "User ID: 'MCDONALDD' User name: 'Denzle McDonald' User skill set: 'T3'",
      "lastReviewDate": "2021-04-06",
      "subjectType": [ "Patient" ],
      "item": [ {
        "linkId": "59132",
        "prefix": "26200",
        "text": "RectalBleedingwithAbdominalPainPW",
        "type": "choice",
        "required": true,
        "repeats": false,
        "option": [ {
          "valueString": "==\"present\", Selected: false"
        }, {
          "valueString": "*, Selected: true"
        } ]
      } ]
    }
  }, {
    "fullUrl": "urn:uuid:7cdb3f48-85a6-4463-9263-cbb82cd967e8",
    "resource": {
      "resourceType": "QuestionnaireResponse",
      "id": "7cdb3f48-85a6-4463-9263-cbb82cd967e8",
      "identifier": {
        "value": "59132"
      },
      "questionnaire": {
        "reference": "urn:uuid:392db174-c254-4e5b-ac68-5cd1b6a6bcfe"
      },
      "status": "completed",
      "subject": {
        "reference": "urn:uuid:6bbb8eb5-eeca-4d0c-a341-e468a60376cb"
      },
      "context": {
        "reference": "urn:uuid:115bf9ad-dc46-4f52-be5a-452f6f061744"
      },
      "authored": "2021-04-06T11:33:34+00:00",
      "item": [ {
        "linkId": "Tx221119",
        "text": "SeverelyIll",
        "answer": [ {
          "valueString": "*"
        } ]
      } ]
    }
  }, {
    "fullUrl": "urn:uuid:392db174-c254-4e5b-ac68-5cd1b6a6bcfe",
    "resource": {
      "resourceType": "Questionnaire",
      "id": "392db174-c254-4e5b-ac68-5cd1b6a6bcfe",
      "identifier": [ {
        "value": "59132"
      } ],
      "version": "2021-04-06T11:33:34.963Z",
      "status": "active",
      "experimental": false,
      "date": "2021-04-06T11:33:34+00:00",
      "publisher": "User ID: 'MCDONALDD' User name: 'Denzle McDonald' User skill set: 'T3'",
      "lastReviewDate": "2021-04-06",
      "subjectType": [ "Patient" ],
      "item": [ {
        "linkId": "59132",
        "prefix": "7500",
        "text": "SeverelyIll",
        "type": "choice",
        "required": true,
        "repeats": false,
        "option": [ {
          "valueString": "==\"present\", Selected: false"
        }, {
          "valueString": "*, Selected: true"
        } ]
      } ]
    }
  }, {
    "fullUrl": "urn:uuid:b3364688-11df-4252-8979-e18c73ca8050",
    "resource": {
      "resourceType": "QuestionnaireResponse",
      "id": "b3364688-11df-4252-8979-e18c73ca8050",
      "identifier": {
        "value": "59132"
      },
      "questionnaire": {
        "reference": "urn:uuid:4fb15665-6980-4a2e-b80f-85a69d0ba657"
      },
      "status": "completed",
      "subject": {
        "reference": "urn:uuid:6bbb8eb5-eeca-4d0c-a341-e468a60376cb"
      },
      "context": {
        "reference": "urn:uuid:115bf9ad-dc46-4f52-be5a-452f6f061744"
      },
      "authored": "2021-04-06T11:33:34+00:00",
      "item": [ {
        "linkId": "Tx224934",
        "text": "GroinPainOrSwellingPWAbdominalPainPW",
        "answer": [ {
          "valueString": "*"
        } ]
      } ]
    }
  }, {
    "fullUrl": "urn:uuid:4fb15665-6980-4a2e-b80f-85a69d0ba657",
    "resource": {
      "resourceType": "Questionnaire",
      "id": "4fb15665-6980-4a2e-b80f-85a69d0ba657",
      "identifier": [ {
        "value": "59132"
      } ],
      "version": "2021-04-06T11:33:34.963Z",
      "status": "active",
      "experimental": false,
      "date": "2021-04-06T11:33:34+00:00",
      "publisher": "User ID: 'MCDONALDD' User name: 'Denzle McDonald' User skill set: 'T3'",
      "lastReviewDate": "2021-04-06",
      "subjectType": [ "Patient" ],
      "item": [ {
        "linkId": "59132",
        "prefix": "23300",
        "text": "GroinPainOrSwellingPWAbdominalPainPW",
        "type": "choice",
        "required": true,
        "repeats": false,
        "option": [ {
          "valueString": "==\"present\", Selected: false"
        }, {
          "valueString": "*, Selected: true"
        } ]
      } ]
    }
  }, {
    "fullUrl": "urn:uuid:d9bc71e7-0f22-4e5f-9a25-50672d8cdced",
    "resource": {
      "resourceType": "QuestionnaireResponse",
      "id": "d9bc71e7-0f22-4e5f-9a25-50672d8cdced",
      "identifier": {
        "value": "59132"
      },
      "questionnaire": {
        "reference": "urn:uuid:5af4b2b7-7855-432e-9559-2bb020608030"
      },
      "status": "completed",
      "subject": {
        "reference": "urn:uuid:6bbb8eb5-eeca-4d0c-a341-e468a60376cb"
      },
      "context": {
        "reference": "urn:uuid:115bf9ad-dc46-4f52-be5a-452f6f061744"
      },
      "authored": "2021-04-06T11:33:34+00:00",
      "item": [ {
        "linkId": "Tx224906",
        "text": "AbdominalPainPW",
        "answer": [ {
          "valueString": "*"
        } ]
      } ]
    }
  }, {
    "fullUrl": "urn:uuid:5af4b2b7-7855-432e-9559-2bb020608030",
    "resource": {
      "resourceType": "Questionnaire",
      "id": "5af4b2b7-7855-432e-9559-2bb020608030",
      "identifier": [ {
        "value": "59132"
      } ],
      "version": "2021-04-06T11:33:34.963Z",
      "status": "active",
      "experimental": false,
      "date": "2021-04-06T11:33:34+00:00",
      "publisher": "User ID: 'MCDONALDD' User name: 'Denzle McDonald' User skill set: 'T3'",
      "lastReviewDate": "2021-04-06",
      "subjectType": [ "Patient" ],
      "item": [ {
        "linkId": "59132",
        "prefix": "23400",
        "text": "AbdominalPainPW",
        "type": "choice",
        "required": true,
        "repeats": false,
        "option": [ {
          "valueString": "==\"present\", Selected: false"
        }, {
          "valueString": "*, Selected: true"
        } ]
      } ]
    }
  }, {
    "fullUrl": "urn:uuid:a0a70ac7-4909-490e-bb86-d93c0563d820",
    "resource": {
      "resourceType": "QuestionnaireResponse",
      "id": "a0a70ac7-4909-490e-bb86-d93c0563d820",
      "identifier": {
        "value": "59132"
      },
      "questionnaire": {
        "reference": "urn:uuid:b0c51f27-581a-4549-8582-67828829092f"
      },
      "status": "completed",
      "subject": {
        "reference": "urn:uuid:6bbb8eb5-eeca-4d0c-a341-e468a60376cb"
      },
      "context": {
        "reference": "urn:uuid:115bf9ad-dc46-4f52-be5a-452f6f061744"
      },
      "authored": "2021-04-06T11:33:34+00:00",
      "item": [ {
        "linkId": "Tx224928",
        "text": "VomitingAnd/OrNauseaWithAbdominalPainPW",
        "answer": [ {
          "valueString": "==\"present\""
        } ]
      } ]
    }
  }, {
    "fullUrl": "urn:uuid:b0c51f27-581a-4549-8582-67828829092f",
    "resource": {
      "resourceType": "Questionnaire",
      "id": "b0c51f27-581a-4549-8582-67828829092f",
      "identifier": [ {
        "value": "59132"
      } ],
      "version": "2021-04-06T11:33:34.963Z",
      "status": "active",
      "experimental": false,
      "date": "2021-04-06T11:33:34+00:00",
      "publisher": "User ID: 'MCDONALDD' User name: 'Denzle McDonald' User skill set: 'T3'",
      "lastReviewDate": "2021-04-06",
      "subjectType": [ "Patient" ],
      "item": [ {
        "linkId": "59132",
        "prefix": "23500",
        "text": "VomitingAnd/OrNauseaWithAbdominalPainPW",
        "type": "choice",
        "required": true,
        "repeats": false,
        "option": [ {
          "valueString": "==\"present\", Selected: true"
        }, {
          "valueString": "*, Selected: false"
        } ]
      } ]
    }
  }, {
    "fullUrl": "urn:uuid:1ea841d6-fd5b-4f32-8f6f-97be6b78a06d",
    "resource": {
      "resourceType": "QuestionnaireResponse",
      "id": "1ea841d6-fd5b-4f32-8f6f-97be6b78a06d",
      "identifier": {
        "value": "59132"
      },
      "questionnaire": {
        "reference": "urn:uuid:0120f02f-00fe-4975-a31a-3c02686160a1"
      },
      "status": "completed",
      "subject": {
        "reference": "urn:uuid:6bbb8eb5-eeca-4d0c-a341-e468a60376cb"
      },
      "context": {
        "reference": "urn:uuid:115bf9ad-dc46-4f52-be5a-452f6f061744"
      },
      "authored": "2021-04-06T11:33:34+00:00",
      "item": [ {
        "linkId": "Tx221017",
        "text": "PATIENT_GENDER",
        "answer": [ {
          "valueString": "==\"F\""
        } ]
      } ]
    }
  }, {
    "fullUrl": "urn:uuid:0120f02f-00fe-4975-a31a-3c02686160a1",
    "resource": {
      "resourceType": "Questionnaire",
      "id": "0120f02f-00fe-4975-a31a-3c02686160a1",
      "identifier": [ {
        "value": "59132"
      } ],
      "version": "2021-04-06T11:33:34.963Z",
      "status": "active",
      "experimental": false,
      "date": "2021-04-06T11:33:34+00:00",
      "publisher": "User ID: 'MCDONALDD' User name: 'Denzle McDonald' User skill set: 'T3'",
      "lastReviewDate": "2021-04-06",
      "subjectType": [ "Patient" ],
      "item": [ {
        "linkId": "59132",
        "prefix": "9000",
        "text": "PATIENT_GENDER",
        "type": "choice",
        "required": true,
        "repeats": false,
        "option": [ {
          "valueString": "==\"M\", Selected: false"
        }, {
          "valueString": "==\"F\", Selected: true"
        }, {
          "valueString": "==\"U\", Selected: false"
        }, {
          "valueString": "*, Selected: false"
        } ]
      } ]
    }
  }, {
    "fullUrl": "urn:uuid:e24f0ed4-a324-4cbf-a27d-698d2448d2c8",
    "resource": {
      "resourceType": "QuestionnaireResponse",
      "id": "e24f0ed4-a324-4cbf-a27d-698d2448d2c8",
      "identifier": {
        "value": "59132"
      },
      "questionnaire": {
        "reference": "urn:uuid:5ca09f2b-6763-43d6-a532-8570a22ca1ed"
      },
      "status": "completed",
      "subject": {
        "reference": "urn:uuid:6bbb8eb5-eeca-4d0c-a341-e468a60376cb"
      },
      "context": {
        "reference": "urn:uuid:115bf9ad-dc46-4f52-be5a-452f6f061744"
      },
      "authored": "2021-04-06T11:33:34+00:00"
    }
  }, {
    "fullUrl": "urn:uuid:5ca09f2b-6763-43d6-a532-8570a22ca1ed",
    "resource": {
      "resourceType": "Questionnaire",
      "id": "5ca09f2b-6763-43d6-a532-8570a22ca1ed",
      "identifier": [ {
        "value": "59132"
      } ],
      "version": "2021-04-06T11:33:34.963Z",
      "status": "active",
      "experimental": false,
      "date": "2021-04-06T11:33:34+00:00",
      "publisher": "User ID: 'MCDONALDD' User name: 'Denzle McDonald' User skill set: 'T3'",
      "lastReviewDate": "2021-04-06",
      "subjectType": [ "Patient" ]
    }
  }, {
    "fullUrl": "urn:uuid:8e02df64-fcb7-45a5-9006-e870b530e60d",
    "resource": {
      "resourceType": "QuestionnaireResponse",
      "id": "8e02df64-fcb7-45a5-9006-e870b530e60d",
      "identifier": {
        "value": "59132"
      },
      "questionnaire": {
        "reference": "urn:uuid:33d583c4-3580-4b27-82f5-a6a66e194bcc"
      },
      "status": "completed",
      "subject": {
        "reference": "urn:uuid:6bbb8eb5-eeca-4d0c-a341-e468a60376cb"
      },
      "context": {
        "reference": "urn:uuid:115bf9ad-dc46-4f52-be5a-452f6f061744"
      },
      "authored": "2021-04-06T11:33:34+00:00",
      "item": [ {
        "linkId": "Tx221114",
        "text": "Pregnancy",
        "answer": [ {
          "valueString": "*"
        } ]
      } ]
    }
  }, {
    "fullUrl": "urn:uuid:33d583c4-3580-4b27-82f5-a6a66e194bcc",
    "resource": {
      "resourceType": "Questionnaire",
      "id": "33d583c4-3580-4b27-82f5-a6a66e194bcc",
      "identifier": [ {
        "value": "59132"
      } ],
      "version": "2021-04-06T11:33:34.963Z",
      "status": "active",
      "experimental": false,
      "date": "2021-04-06T11:33:34+00:00",
      "publisher": "User ID: 'MCDONALDD' User name: 'Denzle McDonald' User skill set: 'T3'",
      "lastReviewDate": "2021-04-06",
      "subjectType": [ "Patient" ],
      "item": [ {
        "linkId": "59132",
        "prefix": "64500",
        "text": "Pregnancy",
        "type": "choice",
        "required": true,
        "repeats": false,
        "option": [ {
          "valueString": "==\"present\", Selected: false"
        }, {
          "valueString": "*, Selected: true"
        } ]
      } ]
    }
  }, {
    "fullUrl": "urn:uuid:9eb059fe-6271-45b0-a4a2-e3e930f92992",
    "resource": {
      "resourceType": "QuestionnaireResponse",
      "id": "9eb059fe-6271-45b0-a4a2-e3e930f92992",
      "identifier": {
        "value": "59132"
      },
      "questionnaire": {
        "reference": "urn:uuid:e9e7a7a9-99b5-4583-96d0-d38a28d3960d"
      },
      "status": "completed",
      "subject": {
        "reference": "urn:uuid:6bbb8eb5-eeca-4d0c-a341-e468a60376cb"
      },
      "context": {
        "reference": "urn:uuid:115bf9ad-dc46-4f52-be5a-452f6f061744"
      },
      "authored": "2021-04-06T11:33:34+00:00",
      "item": [ {
        "linkId": "Tx221338",
        "text": ">=11yearsConfirmed",
        "answer": [ {
          "valueString": "*"
        } ]
      } ]
    }
  }, {
    "fullUrl": "urn:uuid:e9e7a7a9-99b5-4583-96d0-d38a28d3960d",
    "resource": {
      "resourceType": "Questionnaire",
      "id": "e9e7a7a9-99b5-4583-96d0-d38a28d3960d",
      "identifier": [ {
        "value": "59132"
      } ],
      "version": "2021-04-06T11:33:34.963Z",
      "status": "active",
      "experimental": false,
      "date": "2021-04-06T11:33:34+00:00",
      "publisher": "User ID: 'MCDONALDD' User name: 'Denzle McDonald' User skill set: 'T3'",
      "lastReviewDate": "2021-04-06",
      "subjectType": [ "Patient" ],
      "item": [ {
        "linkId": "59132",
        "prefix": "65600",
        "text": ">=11yearsConfirmed",
        "type": "choice",
        "required": true,
        "repeats": false,
        "option": [ {
          "valueString": "==\"present\", Selected: false"
        }, {
          "valueString": "*, Selected: true"
        } ]
      } ]
    }
  }, {
    "fullUrl": "urn:uuid:0dcdfddb-3674-40e3-8e00-f317a96c1277",
    "resource": {
      "resourceType": "QuestionnaireResponse",
      "id": "0dcdfddb-3674-40e3-8e00-f317a96c1277",
      "identifier": {
        "value": "59132"
      },
      "questionnaire": {
        "reference": "urn:uuid:122da79a-f56b-4fe1-8739-964a9c12bfc4"
      },
      "status": "completed",
      "subject": {
        "reference": "urn:uuid:6bbb8eb5-eeca-4d0c-a341-e468a60376cb"
      },
      "context": {
        "reference": "urn:uuid:115bf9ad-dc46-4f52-be5a-452f6f061744"
      },
      "authored": "2021-04-06T11:33:34+00:00",
      "item": [ {
        "linkId": "Tx221119",
        "text": "SeverelyIll",
        "answer": [ {
          "valueString": "*"
        } ]
      } ]
    }
  }, {
    "fullUrl": "urn:uuid:122da79a-f56b-4fe1-8739-964a9c12bfc4",
    "resource": {
      "resourceType": "Questionnaire",
      "id": "122da79a-f56b-4fe1-8739-964a9c12bfc4",
      "identifier": [ {
        "value": "59132"
      } ],
      "version": "2021-04-06T11:33:34.963Z",
      "status": "active",
      "experimental": false,
      "date": "2021-04-06T11:33:34+00:00",
      "publisher": "User ID: 'MCDONALDD' User name: 'Denzle McDonald' User skill set: 'T3'",
      "lastReviewDate": "2021-04-06",
      "subjectType": [ "Patient" ],
      "item": [ {
        "linkId": "59132",
        "prefix": "46200",
        "text": "SeverelyIll",
        "type": "choice",
        "required": true,
        "repeats": false,
        "option": [ {
          "valueString": "==\"present\", Selected: false"
        }, {
          "valueString": "*, Selected: true"
        } ]
      } ]
    }
  }, {
    "fullUrl": "urn:uuid:4dbdebf6-0cd8-4a2a-9a6f-2fa4aefff645",
    "resource": {
      "resourceType": "QuestionnaireResponse",
      "id": "4dbdebf6-0cd8-4a2a-9a6f-2fa4aefff645",
      "identifier": {
        "value": "59132"
      },
      "questionnaire": {
        "reference": "urn:uuid:fcc7b030-ce9f-46ec-9839-21a7d869c7e0"
      },
      "status": "completed",
      "subject": {
        "reference": "urn:uuid:6bbb8eb5-eeca-4d0c-a341-e468a60376cb"
      },
      "context": {
        "reference": "urn:uuid:115bf9ad-dc46-4f52-be5a-452f6f061744"
      },
      "authored": "2021-04-06T11:33:34+00:00",
      "item": [ {
        "linkId": "Tx220947",
        "text": "SeverePain",
        "answer": [ {
          "valueString": "*"
        } ]
      } ]
    }
  }, {
    "fullUrl": "urn:uuid:fcc7b030-ce9f-46ec-9839-21a7d869c7e0",
    "resource": {
      "resourceType": "Questionnaire",
      "id": "fcc7b030-ce9f-46ec-9839-21a7d869c7e0",
      "identifier": [ {
        "value": "59132"
      } ],
      "version": "2021-04-06T11:33:34.963Z",
      "status": "active",
      "experimental": false,
      "date": "2021-04-06T11:33:34+00:00",
      "publisher": "User ID: 'MCDONALDD' User name: 'Denzle McDonald' User skill set: 'T3'",
      "lastReviewDate": "2021-04-06",
      "subjectType": [ "Patient" ],
      "item": [ {
        "linkId": "59132",
        "prefix": "64600",
        "text": "SeverePain",
        "type": "choice",
        "required": true,
        "repeats": false,
        "option": [ {
          "valueString": "==\"present\", Selected: false"
        }, {
          "valueString": "*, Selected: true"
        } ]
      } ]
    }
  }, {
    "fullUrl": "urn:uuid:85305668-1746-4666-91c2-e2bab1cdd7a5",
    "resource": {
      "resourceType": "QuestionnaireResponse",
      "id": "85305668-1746-4666-91c2-e2bab1cdd7a5",
      "identifier": {
        "value": "59132"
      },
      "questionnaire": {
        "reference": "urn:uuid:68276507-8850-4917-8de8-bb888a20602d"
      },
      "status": "completed",
      "subject": {
        "reference": "urn:uuid:6bbb8eb5-eeca-4d0c-a341-e468a60376cb"
      },
      "context": {
        "reference": "urn:uuid:115bf9ad-dc46-4f52-be5a-452f6f061744"
      },
      "authored": "2021-04-06T11:33:34+00:00",
      "item": [ {
        "linkId": "Tx220114",
        "text": "Have you taken anything that might be harmful or poisonous?",
        "answer": [ {
          "valueString": "no"
        } ]
      } ]
    }
  }, {
    "fullUrl": "urn:uuid:68276507-8850-4917-8de8-bb888a20602d",
    "resource": {
      "resourceType": "Questionnaire",
      "id": "68276507-8850-4917-8de8-bb888a20602d",
      "identifier": [ {
        "value": "59132"
      } ],
      "version": "2021-04-06T11:33:34.963Z",
      "status": "active",
      "experimental": false,
      "date": "2021-04-06T11:33:34+00:00",
      "publisher": "User ID: 'MCDONALDD' User name: 'Denzle McDonald' User skill set: 'T3'",
      "lastReviewDate": "2021-04-06",
      "subjectType": [ "Patient" ],
      "item": [ {
        "linkId": "59132",
        "prefix": "30300",
        "text": "Have you taken anything that might be harmful or poisonous?",
        "type": "choice",
        "required": true,
        "repeats": false,
        "option": [ {
          "valueString": "yes (specify substance if known), Selected: false"
        }, {
          "valueString": "not sure, Selected: false"
        }, {
          "valueString": "no, Selected: true"
        } ]
      } ]
    }
  }, {
    "fullUrl": "urn:uuid:430b64de-7ef6-4523-881b-d2fa267bc46a",
    "resource": {
      "resourceType": "QuestionnaireResponse",
      "id": "430b64de-7ef6-4523-881b-d2fa267bc46a",
      "identifier": {
        "value": "59132"
      },
      "questionnaire": {
        "reference": "urn:uuid:7b2f3d9d-bc76-4c1a-8308-d188aeab3c62"
      },
      "status": "completed",
      "subject": {
        "reference": "urn:uuid:6bbb8eb5-eeca-4d0c-a341-e468a60376cb"
      },
      "context": {
        "reference": "urn:uuid:115bf9ad-dc46-4f52-be5a-452f6f061744"
      },
      "authored": "2021-04-06T11:33:34+00:00",
      "item": [ {
        "linkId": "Tx221176",
        "text": "PregnancyUnder20Weeks",
        "answer": [ {
          "valueString": "*"
        } ]
      } ]
    }
  }, {
    "fullUrl": "urn:uuid:7b2f3d9d-bc76-4c1a-8308-d188aeab3c62",
    "resource": {
      "resourceType": "Questionnaire",
      "id": "7b2f3d9d-bc76-4c1a-8308-d188aeab3c62",
      "identifier": [ {
        "value": "59132"
      } ],
      "version": "2021-04-06T11:33:34.963Z",
      "status": "active",
      "experimental": false,
      "date": "2021-04-06T11:33:34+00:00",
      "publisher": "User ID: 'MCDONALDD' User name: 'Denzle McDonald' User skill set: 'T3'",
      "lastReviewDate": "2021-04-06",
      "subjectType": [ "Patient" ],
      "item": [ {
        "linkId": "59132",
        "prefix": "7700",
        "text": "PregnancyUnder20Weeks",
        "type": "choice",
        "required": true,
        "repeats": false,
        "option": [ {
          "valueString": "==\"present\", Selected: false"
        }, {
          "valueString": "*, Selected: true"
        } ]
      } ]
    }
  }, {
    "fullUrl": "urn:uuid:141978ab-e990-4ff0-9c9f-ebcf50a76049",
    "resource": {
      "resourceType": "QuestionnaireResponse",
      "id": "141978ab-e990-4ff0-9c9f-ebcf50a76049",
      "identifier": {
        "value": "59132"
      },
      "questionnaire": {
        "reference": "urn:uuid:240e251f-ebb2-4ae4-b721-5ae243d9cff4"
      },
      "status": "completed",
      "subject": {
        "reference": "urn:uuid:6bbb8eb5-eeca-4d0c-a341-e468a60376cb"
      },
      "context": {
        "reference": "urn:uuid:115bf9ad-dc46-4f52-be5a-452f6f061744"
      },
      "authored": "2021-04-06T11:33:34+00:00",
      "item": [ {
        "linkId": "Tx221338",
        "text": ">=11yearsConfirmed",
        "answer": [ {
          "valueString": "*"
        } ]
      } ]
    }
  }, {
    "fullUrl": "urn:uuid:240e251f-ebb2-4ae4-b721-5ae243d9cff4",
    "resource": {
      "resourceType": "Questionnaire",
      "id": "240e251f-ebb2-4ae4-b721-5ae243d9cff4",
      "identifier": [ {
        "value": "59132"
      } ],
      "version": "2021-04-06T11:33:34.963Z",
      "status": "active",
      "experimental": false,
      "date": "2021-04-06T11:33:34+00:00",
      "publisher": "User ID: 'MCDONALDD' User name: 'Denzle McDonald' User skill set: 'T3'",
      "lastReviewDate": "2021-04-06",
      "subjectType": [ "Patient" ],
      "item": [ {
        "linkId": "59132",
        "prefix": "8200",
        "text": ">=11yearsConfirmed",
        "type": "choice",
        "required": true,
        "repeats": false,
        "option": [ {
          "valueString": "==\"present\", Selected: false"
        }, {
          "valueString": "*, Selected: true"
        } ]
      } ]
    }
  }, {
    "fullUrl": "urn:uuid:0b75f091-4e5d-4ade-882e-f38552b49f71",
    "resource": {
      "resourceType": "QuestionnaireResponse",
      "id": "0b75f091-4e5d-4ade-882e-f38552b49f71",
      "identifier": {
        "value": "59132"
      },
      "questionnaire": {
        "reference": "urn:uuid:656a295d-6f97-4960-bea3-9b8057e395ae"
      },
      "status": "completed",
      "subject": {
        "reference": "urn:uuid:6bbb8eb5-eeca-4d0c-a341-e468a60376cb"
      },
      "context": {
        "reference": "urn:uuid:115bf9ad-dc46-4f52-be5a-452f6f061744"
      },
      "authored": "2021-04-06T11:33:34+00:00",
      "item": [ {
        "linkId": "Tx1033",
        "text": "Have you passed a bowel motion that looks like either of the following?",
        "answer": [ {
          "valueString": "no"
        } ]
      } ]
    }
  }, {
    "fullUrl": "urn:uuid:656a295d-6f97-4960-bea3-9b8057e395ae",
    "resource": {
      "resourceType": "Questionnaire",
      "id": "656a295d-6f97-4960-bea3-9b8057e395ae",
      "identifier": [ {
        "value": "59132"
      } ],
      "version": "2021-04-06T11:33:34.963Z",
      "status": "active",
      "experimental": false,
      "date": "2021-04-06T11:33:34+00:00",
      "publisher": "User ID: 'MCDONALDD' User name: 'Denzle McDonald' User skill set: 'T3'",
      "lastReviewDate": "2021-04-06",
      "subjectType": [ "Patient" ],
      "item": [ {
        "linkId": "59132",
        "prefix": "65200",
        "text": "Have you passed a bowel motion that looks like either of the following?",
        "type": "choice",
        "required": true,
        "repeats": false,
        "option": [ {
          "valueString": "black and tarry, Selected: false"
        }, {
          "valueString": "red or maroon, Selected: false"
        }, {
          "valueString": "not sure, Selected: false"
        }, {
          "valueString": "no, Selected: true"
        } ]
      } ]
    }
  }, {
    "fullUrl": "urn:uuid:4de2a44e-be27-4b8e-963b-d2993c9ad3fa",
    "resource": {
      "resourceType": "QuestionnaireResponse",
      "id": "4de2a44e-be27-4b8e-963b-d2993c9ad3fa",
      "identifier": {
        "value": "59132"
      },
      "questionnaire": {
        "reference": "urn:uuid:e379a8e7-d76d-4ff6-8066-95ffc1448ef7"
      },
      "status": "completed",
      "subject": {
        "reference": "urn:uuid:6bbb8eb5-eeca-4d0c-a341-e468a60376cb"
      },
      "context": {
        "reference": "urn:uuid:115bf9ad-dc46-4f52-be5a-452f6f061744"
      },
      "authored": "2021-04-06T11:33:34+00:00",
      "item": [ {
        "linkId": "Tx223274",
        "text": "VHFSymptom",
        "answer": [ {
          "valueString": "*"
        } ]
      } ]
    }
  }, {
    "fullUrl": "urn:uuid:e379a8e7-d76d-4ff6-8066-95ffc1448ef7",
    "resource": {
      "resourceType": "Questionnaire",
      "id": "e379a8e7-d76d-4ff6-8066-95ffc1448ef7",
      "identifier": [ {
        "value": "59132"
      } ],
      "version": "2021-04-06T11:33:34.963Z",
      "status": "active",
      "experimental": false,
      "date": "2021-04-06T11:33:34+00:00",
      "publisher": "User ID: 'MCDONALDD' User name: 'Denzle McDonald' User skill set: 'T3'",
      "lastReviewDate": "2021-04-06",
      "subjectType": [ "Patient" ],
      "item": [ {
        "linkId": "59132",
        "prefix": "34000",
        "text": "VHFSymptom",
        "type": "choice",
        "required": true,
        "repeats": false,
        "option": [ {
          "valueString": "==\"present\", Selected: false"
        }, {
          "valueString": "*, Selected: true"
        } ]
      } ]
    }
  }, {
    "fullUrl": "urn:uuid:7700c889-7c29-40fd-aeb0-cdde01035553",
    "resource": {
      "resourceType": "QuestionnaireResponse",
      "id": "7700c889-7c29-40fd-aeb0-cdde01035553",
      "identifier": {
        "value": "59132"
      },
      "questionnaire": {
        "reference": "urn:uuid:237a486b-de0b-4bc8-b50c-3e7ad3af6f74"
      },
      "status": "completed",
      "subject": {
        "reference": "urn:uuid:6bbb8eb5-eeca-4d0c-a341-e468a60376cb"
      },
      "context": {
        "reference": "urn:uuid:115bf9ad-dc46-4f52-be5a-452f6f061744"
      },
      "authored": "2021-04-06T11:33:34+00:00",
      "item": [ {
        "linkId": "Tx224075",
        "text": "SeverelyIllandConfused",
        "answer": [ {
          "valueString": "*"
        } ]
      } ]
    }
  }, {
    "fullUrl": "urn:uuid:237a486b-de0b-4bc8-b50c-3e7ad3af6f74",
    "resource": {
      "resourceType": "Questionnaire",
      "id": "237a486b-de0b-4bc8-b50c-3e7ad3af6f74",
      "identifier": [ {
        "value": "59132"
      } ],
      "version": "2021-04-06T11:33:34.963Z",
      "status": "active",
      "experimental": false,
      "date": "2021-04-06T11:33:34+00:00",
      "publisher": "User ID: 'MCDONALDD' User name: 'Denzle McDonald' User skill set: 'T3'",
      "lastReviewDate": "2021-04-06",
      "subjectType": [ "Patient" ],
      "item": [ {
        "linkId": "59132",
        "prefix": "47300",
        "text": "SeverelyIllandConfused",
        "type": "choice",
        "required": true,
        "repeats": false,
        "option": [ {
          "valueString": "==\"present\", Selected: false"
        }, {
          "valueString": "*, Selected: true"
        } ]
      } ]
    }
  }, {
    "fullUrl": "urn:uuid:c776ee6a-f16d-4a92-9470-f0e443599b8c",
    "resource": {
      "resourceType": "QuestionnaireResponse",
      "id": "c776ee6a-f16d-4a92-9470-f0e443599b8c",
      "identifier": {
        "value": "59132"
      },
      "questionnaire": {
        "reference": "urn:uuid:9849334b-492b-4e00-b540-d4c34e2af120"
      },
      "status": "completed",
      "subject": {
        "reference": "urn:uuid:6bbb8eb5-eeca-4d0c-a341-e468a60376cb"
      },
      "context": {
        "reference": "urn:uuid:115bf9ad-dc46-4f52-be5a-452f6f061744"
      },
      "authored": "2021-04-06T11:33:34+00:00",
      "item": [ {
        "linkId": "Tx221119",
        "text": "SeverelyIll",
        "answer": [ {
          "valueString": "*"
        } ]
      } ]
    }
  }, {
    "fullUrl": "urn:uuid:9849334b-492b-4e00-b540-d4c34e2af120",
    "resource": {
      "resourceType": "Questionnaire",
      "id": "9849334b-492b-4e00-b540-d4c34e2af120",
      "identifier": [ {
        "value": "59132"
      } ],
      "version": "2021-04-06T11:33:34.963Z",
      "status": "active",
      "experimental": false,
      "date": "2021-04-06T11:33:34+00:00",
      "publisher": "User ID: 'MCDONALDD' User name: 'Denzle McDonald' User skill set: 'T3'",
      "lastReviewDate": "2021-04-06",
      "subjectType": [ "Patient" ],
      "item": [ {
        "linkId": "59132",
        "prefix": "55200",
        "text": "SeverelyIll",
        "type": "choice",
        "required": true,
        "repeats": false,
        "option": [ {
          "valueString": "==\"present\", Selected: false"
        }, {
          "valueString": "*, Selected: true"
        } ]
      } ]
    }
  }, {
    "fullUrl": "urn:uuid:ce80a080-acd7-414d-bdc2-5f7b8601c252",
    "resource": {
      "resourceType": "QuestionnaireResponse",
      "id": "ce80a080-acd7-414d-bdc2-5f7b8601c252",
      "identifier": {
        "value": "59132"
      },
      "questionnaire": {
        "reference": "urn:uuid:bb48ed24-2a64-4945-abb3-abc96a23685e"
      },
      "status": "completed",
      "subject": {
        "reference": "urn:uuid:6bbb8eb5-eeca-4d0c-a341-e468a60376cb"
      },
      "context": {
        "reference": "urn:uuid:115bf9ad-dc46-4f52-be5a-452f6f061744"
      },
      "authored": "2021-04-06T11:33:34+00:00",
      "item": [ {
        "linkId": "Tx223485",
        "text": "ConfusionDeclared",
        "answer": [ {
          "valueString": "*"
        } ]
      } ]
    }
  }, {
    "fullUrl": "urn:uuid:bb48ed24-2a64-4945-abb3-abc96a23685e",
    "resource": {
      "resourceType": "Questionnaire",
      "id": "bb48ed24-2a64-4945-abb3-abc96a23685e",
      "identifier": [ {
        "value": "59132"
      } ],
      "version": "2021-04-06T11:33:34.963Z",
      "status": "active",
      "experimental": false,
      "date": "2021-04-06T11:33:34+00:00",
      "publisher": "User ID: 'MCDONALDD' User name: 'Denzle McDonald' User skill set: 'T3'",
      "lastReviewDate": "2021-04-06",
      "subjectType": [ "Patient" ],
      "item": [ {
        "linkId": "59132",
        "prefix": "55600",
        "text": "ConfusionDeclared",
        "type": "choice",
        "required": true,
        "repeats": false,
        "option": [ {
          "valueString": "==\"present\", Selected: false"
        }, {
          "valueString": "*, Selected: true"
        } ]
      } ]
    }
  }, {
    "fullUrl": "urn:uuid:7e28d91e-c729-4095-bf6f-b9d29764d4c7",
    "resource": {
      "resourceType": "QuestionnaireResponse",
      "id": "7e28d91e-c729-4095-bf6f-b9d29764d4c7",
      "identifier": {
        "value": "59132"
      },
      "questionnaire": {
        "reference": "urn:uuid:ceac6d6b-e464-4400-a553-fc20961ffcca"
      },
      "status": "completed",
      "subject": {
        "reference": "urn:uuid:6bbb8eb5-eeca-4d0c-a341-e468a60376cb"
      },
      "context": {
        "reference": "urn:uuid:115bf9ad-dc46-4f52-be5a-452f6f061744"
      },
      "authored": "2021-04-06T11:33:34+00:00",
      "item": [ {
        "linkId": "Tx1213",
        "text": "Have you suddenly become confused OR more confused than usual?",
        "answer": [ {
          "valueString": "no"
        } ]
      } ]
    }
  }, {
    "fullUrl": "urn:uuid:ceac6d6b-e464-4400-a553-fc20961ffcca",
    "resource": {
      "resourceType": "Questionnaire",
      "id": "ceac6d6b-e464-4400-a553-fc20961ffcca",
      "identifier": [ {
        "value": "59132"
      } ],
      "version": "2021-04-06T11:33:34.963Z",
      "status": "active",
      "experimental": false,
      "date": "2021-04-06T11:33:34+00:00",
      "publisher": "User ID: 'MCDONALDD' User name: 'Denzle McDonald' User skill set: 'T3'",
      "lastReviewDate": "2021-04-06",
      "subjectType": [ "Patient" ],
      "item": [ {
        "linkId": "59132",
        "prefix": "55500",
        "text": "Have you suddenly become confused OR more confused than usual?",
        "type": "choice",
        "required": true,
        "repeats": false,
        "option": [ {
          "valueString": "yes, Selected: false"
        }, {
          "valueString": "not sure, Selected: false"
        }, {
          "valueString": "no, Selected: true"
        } ]
      } ]
    }
  }, {
    "fullUrl": "urn:uuid:f379f8c7-d418-4a7e-a2f1-696dc3a9c9cc",
    "resource": {
      "resourceType": "QuestionnaireResponse",
      "id": "f379f8c7-d418-4a7e-a2f1-696dc3a9c9cc",
      "identifier": {
        "value": "59132"
      },
      "questionnaire": {
        "reference": "urn:uuid:2aa28602-bb9d-4554-8197-488009b26053"
      },
      "status": "completed",
      "subject": {
        "reference": "urn:uuid:6bbb8eb5-eeca-4d0c-a341-e468a60376cb"
      },
      "context": {
        "reference": "urn:uuid:115bf9ad-dc46-4f52-be5a-452f6f061744"
      },
      "authored": "2021-04-06T11:33:34+00:00",
      "item": [ {
        "linkId": "Tx220164",
        "text": "Are you breathing faster or harder when doing nothing at all?",
        "answer": [ {
          "valueString": "no"
        } ]
      } ]
    }
  }, {
    "fullUrl": "urn:uuid:2aa28602-bb9d-4554-8197-488009b26053",
    "resource": {
      "resourceType": "Questionnaire",
      "id": "2aa28602-bb9d-4554-8197-488009b26053",
      "identifier": [ {
        "value": "59132"
      } ],
      "version": "2021-04-06T11:33:34.963Z",
      "status": "active",
      "experimental": false,
      "date": "2021-04-06T11:33:34+00:00",
      "publisher": "User ID: 'MCDONALDD' User name: 'Denzle McDonald' User skill set: 'T3'",
      "lastReviewDate": "2021-04-06",
      "subjectType": [ "Patient" ],
      "item": [ {
        "linkId": "59132",
        "prefix": "55400",
        "text": "Are you breathing faster or harder when doing nothing at all?",
        "type": "choice",
        "required": true,
        "repeats": false,
        "option": [ {
          "valueString": "yes, Selected: false"
        }, {
          "valueString": "not sure, Selected: false"
        }, {
          "valueString": "no, Selected: true"
        } ]
      } ]
    }
  }, {
    "fullUrl": "urn:uuid:1c9ca487-b5fd-4595-a719-307eb69d09b5",
    "resource": {
      "resourceType": "QuestionnaireResponse",
      "id": "1c9ca487-b5fd-4595-a719-307eb69d09b5",
      "identifier": {
        "value": "59132"
      },
      "questionnaire": {
        "reference": "urn:uuid:572047f3-0ab0-4d3f-9134-b23826d24df3"
      },
      "status": "completed",
      "subject": {
        "reference": "urn:uuid:6bbb8eb5-eeca-4d0c-a341-e468a60376cb"
      },
      "context": {
        "reference": "urn:uuid:115bf9ad-dc46-4f52-be5a-452f6f061744"
      },
      "authored": "2021-04-06T11:33:34+00:00",
      "item": [ {
        "linkId": "Tx224697",
        "text": "ShoulderTipPainAsked",
        "answer": [ {
          "valueString": "*"
        } ]
      } ]
    }
  }, {
    "fullUrl": "urn:uuid:572047f3-0ab0-4d3f-9134-b23826d24df3",
    "resource": {
      "resourceType": "Questionnaire",
      "id": "572047f3-0ab0-4d3f-9134-b23826d24df3",
      "identifier": [ {
        "value": "59132"
      } ],
      "version": "2021-04-06T11:33:34.963Z",
      "status": "active",
      "experimental": false,
      "date": "2021-04-06T11:33:34+00:00",
      "publisher": "User ID: 'MCDONALDD' User name: 'Denzle McDonald' User skill set: 'T3'",
      "lastReviewDate": "2021-04-06",
      "subjectType": [ "Patient" ],
      "item": [ {
        "linkId": "59132",
        "prefix": "59300",
        "text": "ShoulderTipPainAsked",
        "type": "choice",
        "required": true,
        "repeats": false,
        "option": [ {
          "valueString": "==\"present\", Selected: false"
        }, {
          "valueString": "*, Selected: true"
        } ]
      } ]
    }
  }, {
    "fullUrl": "urn:uuid:7218b42e-b471-4393-a500-178c47f05714",
    "resource": {
      "resourceType": "QuestionnaireResponse",
      "id": "7218b42e-b471-4393-a500-178c47f05714",
      "identifier": {
        "value": "59132"
      },
      "questionnaire": {
        "reference": "urn:uuid:0d1c3e99-6143-4ec8-a15e-5eec124d6115"
      },
      "status": "completed",
      "subject": {
        "reference": "urn:uuid:6bbb8eb5-eeca-4d0c-a341-e468a60376cb"
      },
      "context": {
        "reference": "urn:uuid:115bf9ad-dc46-4f52-be5a-452f6f061744"
      },
      "authored": "2021-04-06T11:33:34+00:00",
      "item": [ {
        "linkId": "Tx1513",
        "text": "Have you got either of the following problems?",
        "answer": [ {
          "valueString": "no"
        } ]
      } ]
    }
  }, {
    "fullUrl": "urn:uuid:0d1c3e99-6143-4ec8-a15e-5eec124d6115",
    "resource": {
      "resourceType": "Questionnaire",
      "id": "0d1c3e99-6143-4ec8-a15e-5eec124d6115",
      "identifier": [ {
        "value": "59132"
      } ],
      "version": "2021-04-06T11:33:34.963Z",
      "status": "active",
      "experimental": false,
      "date": "2021-04-06T11:33:34+00:00",
      "publisher": "User ID: 'MCDONALDD' User name: 'Denzle McDonald' User skill set: 'T3'",
      "lastReviewDate": "2021-04-06",
      "subjectType": [ "Patient" ],
      "item": [ {
        "linkId": "59132",
        "prefix": "11000",
        "text": "Have you got either of the following problems?",
        "type": "choice",
        "required": true,
        "repeats": false,
        "option": [ {
          "valueString": "new pain in the TIP of a shoulder as well, Selected: false"
        }, {
          "valueString": "pain in the lower right side of the abdomen, Selected: false"
        }, {
          "valueString": "not sure, Selected: false"
        }, {
          "valueString": "no, Selected: true"
        } ]
      } ]
    }
  }, {
    "fullUrl": "urn:uuid:0d4ffd90-afcd-4e59-bb28-b6fad85e2d81",
    "resource": {
      "resourceType": "QuestionnaireResponse",
      "id": "0d4ffd90-afcd-4e59-bb28-b6fad85e2d81",
      "identifier": {
        "value": "59132"
      },
      "questionnaire": {
        "reference": "urn:uuid:221fbd90-e48f-44c9-b8ab-e53d4c602f75"
      },
      "status": "completed",
      "subject": {
        "reference": "urn:uuid:6bbb8eb5-eeca-4d0c-a341-e468a60376cb"
      },
      "context": {
        "reference": "urn:uuid:115bf9ad-dc46-4f52-be5a-452f6f061744"
      },
      "authored": "2021-04-06T11:33:34+00:00",
      "item": [ {
        "linkId": "Tx3481",
        "text": "Has the pain been there ALL THE TIME for MORE THAN 4 HOURS?",
        "answer": [ {
          "valueString": "no (LESS THAN 4 hours)"
        } ]
      } ]
    }
  }, {
    "fullUrl": "urn:uuid:221fbd90-e48f-44c9-b8ab-e53d4c602f75",
    "resource": {
      "resourceType": "Questionnaire",
      "id": "221fbd90-e48f-44c9-b8ab-e53d4c602f75",
      "identifier": [ {
        "value": "59132"
      } ],
      "version": "2021-04-06T11:33:34.963Z",
      "status": "active",
      "experimental": false,
      "date": "2021-04-06T11:33:34+00:00",
      "publisher": "User ID: 'MCDONALDD' User name: 'Denzle McDonald' User skill set: 'T3'",
      "lastReviewDate": "2021-04-06",
      "subjectType": [ "Patient" ],
      "item": [ {
        "linkId": "59132",
        "prefix": "13000",
        "text": "Has the pain been there ALL THE TIME for MORE THAN 4 HOURS?",
        "type": "choice",
        "required": true,
        "repeats": false,
        "option": [ {
          "valueString": "yes (4 hours or MORE), Selected: false"
        }, {
          "valueString": "not sure, Selected: false"
        }, {
          "valueString": "no (LESS THAN 4 hours), Selected: true"
        } ]
      } ]
    }
  }, {
    "fullUrl": "urn:uuid:497787f0-3994-4771-b876-56954eee06db",
    "resource": {
      "resourceType": "QuestionnaireResponse",
      "id": "497787f0-3994-4771-b876-56954eee06db",
      "identifier": {
        "value": "59132"
      },
      "questionnaire": {
        "reference": "urn:uuid:030627c2-7c49-4fdf-804a-971fbf897335"
      },
      "status": "completed",
      "subject": {
        "reference": "urn:uuid:6bbb8eb5-eeca-4d0c-a341-e468a60376cb"
      },
      "context": {
        "reference": "urn:uuid:115bf9ad-dc46-4f52-be5a-452f6f061744"
      },
      "authored": "2021-04-06T11:33:34+00:00",
      "item": [ {
        "linkId": "Tx1178",
        "text": "Have you been diagnosed with diabetes?",
        "answer": [ {
          "valueString": "no"
        } ]
      } ]
    }
  }, {
    "fullUrl": "urn:uuid:030627c2-7c49-4fdf-804a-971fbf897335",
    "resource": {
      "resourceType": "Questionnaire",
      "id": "030627c2-7c49-4fdf-804a-971fbf897335",
      "identifier": [ {
        "value": "59132"
      } ],
      "version": "2021-04-06T11:33:34.963Z",
      "status": "active",
      "experimental": false,
      "date": "2021-04-06T11:33:34+00:00",
      "publisher": "User ID: 'MCDONALDD' User name: 'Denzle McDonald' User skill set: 'T3'",
      "lastReviewDate": "2021-04-06",
      "subjectType": [ "Patient" ],
      "item": [ {
        "linkId": "59132",
        "prefix": "13700",
        "text": "Have you been diagnosed with diabetes?",
        "type": "choice",
        "required": true,
        "repeats": false,
        "option": [ {
          "valueString": "yes, Selected: false"
        }, {
          "valueString": "not sure, Selected: false"
        }, {
          "valueString": "no, Selected: true"
        } ]
      } ]
    }
  }, {
    "fullUrl": "urn:uuid:8cd08f34-e019-4a0a-940d-31f04a687058",
    "resource": {
      "resourceType": "QuestionnaireResponse",
      "id": "8cd08f34-e019-4a0a-940d-31f04a687058",
      "identifier": {
        "value": "59132"
      },
      "questionnaire": {
        "reference": "urn:uuid:564949ad-9094-44e1-9c5c-2eb159568eb2"
      },
      "status": "completed",
      "subject": {
        "reference": "urn:uuid:6bbb8eb5-eeca-4d0c-a341-e468a60376cb"
      },
      "context": {
        "reference": "urn:uuid:115bf9ad-dc46-4f52-be5a-452f6f061744"
      },
      "authored": "2021-04-06T11:33:34+00:00",
      "item": [ {
        "linkId": "Tx220906",
        "text": "Have you got pain in the back or side between the ribs and hips?",
        "answer": [ {
          "valueString": "yes"
        } ]
      } ]
    }
  }, {
    "fullUrl": "urn:uuid:564949ad-9094-44e1-9c5c-2eb159568eb2",
    "resource": {
      "resourceType": "Questionnaire",
      "id": "564949ad-9094-44e1-9c5c-2eb159568eb2",
      "identifier": [ {
        "value": "59132"
      } ],
      "version": "2021-04-06T11:33:34.963Z",
      "status": "active",
      "experimental": false,
      "date": "2021-04-06T11:33:34+00:00",
      "publisher": "User ID: 'MCDONALDD' User name: 'Denzle McDonald' User skill set: 'T3'",
      "lastReviewDate": "2021-04-06",
      "subjectType": [ "Patient" ],
      "item": [ {
        "linkId": "59132",
        "prefix": "14400",
        "text": "Have you got pain in the back or side between the ribs and hips?",
        "type": "choice",
        "required": true,
        "repeats": false,
        "option": [ {
          "valueString": "yes, Selected: true"
        }, {
          "valueString": "not sure, Selected: false"
        }, {
          "valueString": "no, Selected: false"
        } ]
      } ]
    }
  }, {
    "fullUrl": "urn:uuid:c3ac8eaa-28cc-450a-8c66-de0532d95def",
    "resource": {
      "resourceType": "QuestionnaireResponse",
      "id": "c3ac8eaa-28cc-450a-8c66-de0532d95def",
      "identifier": {
        "value": "59132"
      },
      "questionnaire": {
        "reference": "urn:uuid:460bdde8-650b-4882-b84b-53a2cb23deb9"
      },
      "status": "completed",
      "subject": {
        "reference": "urn:uuid:6bbb8eb5-eeca-4d0c-a341-e468a60376cb"
      },
      "context": {
        "reference": "urn:uuid:115bf9ad-dc46-4f52-be5a-452f6f061744"
      },
      "authored": "2021-04-06T11:33:34+00:00",
      "item": [ {
        "linkId": "Tx1122",
        "text": "Have you felt hot or feverish at any time in the last 12 hours?",
        "answer": [ {
          "valueString": "yes - temperature not taken"
        } ]
      } ]
    }
  }, {
    "fullUrl": "urn:uuid:460bdde8-650b-4882-b84b-53a2cb23deb9",
    "resource": {
      "resourceType": "Questionnaire",
      "id": "460bdde8-650b-4882-b84b-53a2cb23deb9",
      "identifier": [ {
        "value": "59132"
      } ],
      "version": "2021-04-06T11:33:34.963Z",
      "status": "active",
      "experimental": false,
      "date": "2021-04-06T11:33:34+00:00",
      "publisher": "User ID: 'MCDONALDD' User name: 'Denzle McDonald' User skill set: 'T3'",
      "lastReviewDate": "2021-04-06",
      "subjectType": [ "Patient" ],
      "item": [ {
        "linkId": "59132",
        "prefix": "14700",
        "text": "Have you felt hot or feverish at any time in the last 12 hours?",
        "type": "choice",
        "required": true,
        "repeats": false,
        "option": [ {
          "valueString": "yes - temperature not taken, Selected: true"
        }, {
          "valueString": "yes - temperature taken (specify), Selected: false"
        }, {
          "valueString": "not sure, Selected: false"
        }, {
          "valueString": "no, Selected: false"
        } ]
      } ]
    }
  }, {
    "fullUrl": "urn:uuid:2f69b309-1ffb-47fb-b329-d13bba6932c2",
    "resource": {
      "resourceType": "QuestionnaireResponse",
      "id": "2f69b309-1ffb-47fb-b329-d13bba6932c2",
      "identifier": {
        "value": "59132"
      },
      "questionnaire": {
        "reference": "urn:uuid:abcc26d0-31d5-47a8-a253-bcce26a0ca3f"
      },
      "status": "completed",
      "subject": {
        "reference": "urn:uuid:6bbb8eb5-eeca-4d0c-a341-e468a60376cb"
      },
      "context": {
        "reference": "urn:uuid:115bf9ad-dc46-4f52-be5a-452f6f061744"
      },
      "authored": "2021-04-06T11:33:34+00:00",
      "item": [ {
        "linkId": "Tx1320",
        "text": "Have you got a new red rash all over, like sunburn?",
        "answer": [ {
          "valueString": "no"
        } ]
      } ]
    }
  }, {
    "fullUrl": "urn:uuid:abcc26d0-31d5-47a8-a253-bcce26a0ca3f",
    "resource": {
      "resourceType": "Questionnaire",
      "id": "abcc26d0-31d5-47a8-a253-bcce26a0ca3f",
      "identifier": [ {
        "value": "59132"
      } ],
      "version": "2021-04-06T11:33:34.963Z",
      "status": "active",
      "experimental": false,
      "date": "2021-04-06T11:33:34+00:00",
      "publisher": "User ID: 'MCDONALDD' User name: 'Denzle McDonald' User skill set: 'T3'",
      "lastReviewDate": "2021-04-06",
      "subjectType": [ "Patient" ],
      "item": [ {
        "linkId": "59132",
        "prefix": "14800",
        "text": "Have you got a new red rash all over, like sunburn?",
        "type": "choice",
        "required": true,
        "repeats": false,
        "option": [ {
          "valueString": "yes, Selected: false"
        }, {
          "valueString": "not sure, Selected: false"
        }, {
          "valueString": "no, Selected: true"
        } ]
      } ]
    }
  }, {
    "fullUrl": "urn:uuid:92f93ccf-2025-4b3a-8f00-d2dbe19e6305",
    "resource": {
      "resourceType": "QuestionnaireResponse",
      "id": "92f93ccf-2025-4b3a-8f00-d2dbe19e6305",
      "identifier": {
        "value": "59132"
      },
      "questionnaire": {
        "reference": "urn:uuid:fab12548-390d-4959-ae90-a8d53eeec029"
      },
      "status": "completed",
      "subject": {
        "reference": "urn:uuid:6bbb8eb5-eeca-4d0c-a341-e468a60376cb"
      },
      "context": {
        "reference": "urn:uuid:115bf9ad-dc46-4f52-be5a-452f6f061744"
      },
      "authored": "2021-04-06T11:33:34+00:00",
      "item": [ {
        "linkId": "Tx221449",
        "text": "STRING:SDPCFullPrimaryCareassessmentandprescribingcapability",
        "answer": [ {
          "valueString": "\"PC full Primary Care assessment and prescribing capability\""
        } ]
      } ]
    }
  }, {
    "fullUrl": "urn:uuid:fab12548-390d-4959-ae90-a8d53eeec029",
    "resource": {
      "resourceType": "Questionnaire",
      "id": "fab12548-390d-4959-ae90-a8d53eeec029",
      "identifier": [ {
        "value": "59132"
      } ],
      "version": "2021-04-06T11:33:34.963Z",
      "status": "active",
      "experimental": false,
      "date": "2021-04-06T11:33:34+00:00",
      "publisher": "User ID: 'MCDONALDD' User name: 'Denzle McDonald' User skill set: 'T3'",
      "lastReviewDate": "2021-04-06",
      "subjectType": [ "Patient" ],
      "item": [ {
        "linkId": "59132",
        "prefix": "14900",
        "text": "STRING:SDPCFullPrimaryCareassessmentandprescribingcapability",
        "type": "choice",
        "required": true,
        "repeats": false,
        "option": [ {
          "valueString": "\"PC full Primary Care assessment and prescribing capability\", Selected: true"
        } ]
      } ]
    }
  }, {
    "fullUrl": "urn:uuid:da85634c-e18c-4057-9302-075e98a52155",
    "resource": {
      "resourceType": "QuestionnaireResponse",
      "id": "da85634c-e18c-4057-9302-075e98a52155",
      "identifier": {
        "value": "59132"
      },
      "questionnaire": {
        "reference": "urn:uuid:125dc900-5013-4515-962f-a28cb2631331"
      },
      "status": "completed",
      "subject": {
        "reference": "urn:uuid:6bbb8eb5-eeca-4d0c-a341-e468a60376cb"
      },
      "context": {
        "reference": "urn:uuid:115bf9ad-dc46-4f52-be5a-452f6f061744"
      },
      "authored": "2021-04-06T11:33:34+00:00"
    }
  }, {
    "fullUrl": "urn:uuid:125dc900-5013-4515-962f-a28cb2631331",
    "resource": {
      "resourceType": "Questionnaire",
      "id": "125dc900-5013-4515-962f-a28cb2631331",
      "identifier": [ {
        "value": "59132"
      } ],
      "version": "2021-04-06T11:33:34.963Z",
      "status": "active",
      "experimental": false,
      "date": "2021-04-06T11:33:34+00:00",
      "publisher": "User ID: 'MCDONALDD' User name: 'Denzle McDonald' User skill set: 'T3'",
      "lastReviewDate": "2021-04-06",
      "subjectType": [ "Patient" ]
    }
  }, {
    "fullUrl": "urn:uuid:fd6bf66c-c3a0-4873-814d-80bc9206c3f0",
    "resource": {
      "resourceType": "QuestionnaireResponse",
      "id": "fd6bf66c-c3a0-4873-814d-80bc9206c3f0",
      "identifier": {
        "value": "59132"
      },
      "questionnaire": {
        "reference": "urn:uuid:4cf3809d-1dcd-457d-b97f-7bf04b660217"
      },
      "status": "completed",
      "subject": {
        "reference": "urn:uuid:6bbb8eb5-eeca-4d0c-a341-e468a60376cb"
      },
      "context": {
        "reference": "urn:uuid:115bf9ad-dc46-4f52-be5a-452f6f061744"
      },
      "authored": "2021-04-06T11:33:34+00:00"
    }
  }, {
    "fullUrl": "urn:uuid:4cf3809d-1dcd-457d-b97f-7bf04b660217",
    "resource": {
      "resourceType": "Questionnaire",
      "id": "4cf3809d-1dcd-457d-b97f-7bf04b660217",
      "identifier": [ {
        "value": "59132"
      } ],
      "version": "2021-04-06T11:33:34.963Z",
      "status": "active",
      "experimental": false,
      "date": "2021-04-06T11:33:34+00:00",
      "publisher": "User ID: 'MCDONALDD' User name: 'Denzle McDonald' User skill set: 'T3'",
      "lastReviewDate": "2021-04-06",
      "subjectType": [ "Patient" ]
    }
  }, {
    "fullUrl": "urn:uuid:4808562c-c108-4580-91da-020771f26928",
    "resource": {
      "resourceType": "QuestionnaireResponse",
      "id": "4808562c-c108-4580-91da-020771f26928",
      "identifier": {
        "value": "59132"
      },
      "questionnaire": {
        "reference": "urn:uuid:6b3d1db5-9ca9-42b4-9714-cb488ca2435a"
      },
      "status": "completed",
      "subject": {
        "reference": "urn:uuid:6bbb8eb5-eeca-4d0c-a341-e468a60376cb"
      },
      "context": {
        "reference": "urn:uuid:115bf9ad-dc46-4f52-be5a-452f6f061744"
      },
      "authored": "2021-04-06T11:33:34+00:00"
    }
  }, {
    "fullUrl": "urn:uuid:6b3d1db5-9ca9-42b4-9714-cb488ca2435a",
    "resource": {
      "resourceType": "Questionnaire",
      "id": "6b3d1db5-9ca9-42b4-9714-cb488ca2435a",
      "identifier": [ {
        "value": "59132"
      } ],
      "version": "2021-04-06T11:33:34.963Z",
      "status": "active",
      "experimental": false,
      "date": "2021-04-06T11:33:34+00:00",
      "publisher": "User ID: 'MCDONALDD' User name: 'Denzle McDonald' User skill set: 'T3'",
      "lastReviewDate": "2021-04-06",
      "subjectType": [ "Patient" ]
    }
  }, {
    "fullUrl": "urn:uuid:c8ff2f60-df23-49d9-ab18-bd6518669814",
    "resource": {
      "resourceType": "QuestionnaireResponse",
      "id": "c8ff2f60-df23-49d9-ab18-bd6518669814",
      "identifier": {
        "value": "59132"
      },
      "questionnaire": {
        "reference": "urn:uuid:329751a8-fa2b-4ed7-ac42-a5f587fe8c2b"
      },
      "status": "completed",
      "subject": {
        "reference": "urn:uuid:6bbb8eb5-eeca-4d0c-a341-e468a60376cb"
      },
      "context": {
        "reference": "urn:uuid:115bf9ad-dc46-4f52-be5a-452f6f061744"
      },
      "authored": "2021-04-06T11:33:34+00:00"
    }
  }, {
    "fullUrl": "urn:uuid:329751a8-fa2b-4ed7-ac42-a5f587fe8c2b",
    "resource": {
      "resourceType": "Questionnaire",
      "id": "329751a8-fa2b-4ed7-ac42-a5f587fe8c2b",
      "identifier": [ {
        "value": "59132"
      } ],
      "version": "2021-04-06T11:33:34.963Z",
      "status": "active",
      "experimental": false,
      "date": "2021-04-06T11:33:34+00:00",
      "publisher": "User ID: 'MCDONALDD' User name: 'Denzle McDonald' User skill set: 'T3'",
      "lastReviewDate": "2021-04-06",
      "subjectType": [ "Patient" ]
    }
  }, {
    "fullUrl": "urn:uuid:cd86955c-4265-43bd-800d-3f967a7deb40",
    "resource": {
      "resourceType": "QuestionnaireResponse",
      "id": "cd86955c-4265-43bd-800d-3f967a7deb40",
      "identifier": {
        "value": "59132"
      },
      "questionnaire": {
        "reference": "urn:uuid:84f219d1-248b-44d1-9e3d-973a72fb6e2a"
      },
      "status": "completed",
      "subject": {
        "reference": "urn:uuid:6bbb8eb5-eeca-4d0c-a341-e468a60376cb"
      },
      "context": {
        "reference": "urn:uuid:115bf9ad-dc46-4f52-be5a-452f6f061744"
      },
      "authored": "2021-04-06T11:33:34+00:00"
    }
  }, {
    "fullUrl": "urn:uuid:84f219d1-248b-44d1-9e3d-973a72fb6e2a",
    "resource": {
      "resourceType": "Questionnaire",
      "id": "84f219d1-248b-44d1-9e3d-973a72fb6e2a",
      "identifier": [ {
        "value": "59132"
      } ],
      "version": "2021-04-06T11:33:34.963Z",
      "status": "active",
      "experimental": false,
      "date": "2021-04-06T11:33:34+00:00",
      "publisher": "User ID: 'MCDONALDD' User name: 'Denzle McDonald' User skill set: 'T3'",
      "lastReviewDate": "2021-04-06",
      "subjectType": [ "Patient" ]
    }
  }, {
    "fullUrl": "urn:uuid:c5c297af-6f6e-4622-ba50-e307ce2925a0",
    "resource": {
      "resourceType": "Observation",
      "id": "c5c297af-6f6e-4622-ba50-e307ce2925a0",
      "status": "final",
      "code": {
        "coding": [ {
          "system": "http://snomed.info/sct",
          "code": "33962009",
          "display": "Presenting complaint"
        } ]
      },
      "subject": {
        "reference": "urn:uuid:6bbb8eb5-eeca-4d0c-a341-e468a60376cb"
      },
      "context": {
        "reference": "urn:uuid:115bf9ad-dc46-4f52-be5a-452f6f061744"
      },
      "valueString": "Pharmacy ITK Testing"
    }
  }, {
    "fullUrl": "urn:uuid:6bda9148-7e19-4a3a-8641-b4fbf5d2c6e5",
    "resource": {
      "resourceType": "PractitionerRole",
      "id": "6bda9148-7e19-4a3a-8641-b4fbf5d2c6e5",
      "practitioner": {
        "reference": "urn:uuid:d2e9082a-1815-49d8-8aeb-18dd97dfed30"
      },
      "organization": {
        "reference": "urn:uuid:e1e954e1-386f-4887-be1e-ffd752cf79bc"
      },
      "code": [ {
        "coding": [ {
          "system": "2.16.840.1.113883.2.1.3.2.4.17.339",
          "code": "DOCTOR",
          "display": "Doctor"
        } ]
      } ]
    }
  }, {
    "fullUrl": "urn:uuid:e1e954e1-386f-4887-be1e-ffd752cf79bc",
    "resource": {
      "resourceType": "Organization",
      "id": "e1e954e1-386f-4887-be1e-ffd752cf79bc",
      "identifier": [ {
        "value": "RYE"
      } ],
      "name": "1.SCAS Administrator (SCAS111)"
    }
  }, {
    "fullUrl": "urn:uuid:06e64f56-17c9-4d5e-87bb-2e4b6456eed8",
    "resource": {
      "resourceType": "PractitionerRole",
      "id": "06e64f56-17c9-4d5e-87bb-2e4b6456eed8",
      "practitioner": {
        "reference": "urn:uuid:eff322fb-cb86-4d9a-9925-2fedf754d7ff"
      },
      "organization": {
        "reference": "urn:uuid:23c48e4c-e52c-4686-bc51-404e63b17c1f"
      },
      "code": [ {
        "coding": [ {
          "system": "2.16.840.1.113883.2.1.3.2.4.17.196",
          "code": "R0010",
          "display": "Medical Director"
        } ]
      } ]
    }
  }, {
    "fullUrl": "urn:uuid:23c48e4c-e52c-4686-bc51-404e63b17c1f",
    "resource": {
      "resourceType": "Organization",
      "id": "23c48e4c-e52c-4686-bc51-404e63b17c1f",
      "identifier": [ {
        "value": "RYE"
      } ],
      "name": "SCAS111"
    }
  }, {
    "fullUrl": "urn:uuid:55a264f1-aee2-4f81-abfa-21b231d32007",
    "resource": {
      "resourceType": "RelatedPerson",
      "id": "55a264f1-aee2-4f81-abfa-21b231d32007",
      "patient": {
        "reference": "urn:uuid:6bbb8eb5-eeca-4d0c-a341-e468a60376cb"
      },
      "relationship": {
        "coding": [ {
          "system": "http://hl7.org/fhir/v2/0131",
          "code": "C",
          "display": "Emergency Contact"
        } ]
      },
      "telecom": [ {
        "system": "phone",
        "value": "tel:07948625625"
      } ]
    }
  }, {
    "fullUrl": "urn:uuid:273b16aa-c3af-4bf6-8516-21122d981327",
    "resource": {
      "resourceType": "Device",
      "id": "273b16aa-c3af-4bf6-8516-21122d981327",
      "model": "111 Adaptor",
      "version": "0.11.0"
    }
  }, {
    "fullUrl": "urn:uuid:464c2d4d-6a28-436e-96ba-47507757069b",
    "resource": {
      "resourceType": "List",
      "id": "464c2d4d-6a28-436e-96ba-47507757069b",
      "status": "current",
      "mode": "working",
      "title": "111 Report List",
      "code": {
        "coding": [ {
          "system": "http://snomed.info/sct",
          "code": "225390008",
          "display": "Triage"
        } ]
      },
      "subject": {
        "reference": "urn:uuid:6bbb8eb5-eeca-4d0c-a341-e468a60376cb"
      },
      "encounter": {
        "reference": "urn:uuid:115bf9ad-dc46-4f52-be5a-452f6f061744"
      },
      "date": "2021-10-01T07:33:59+00:00",
      "source": {
        "reference": "urn:uuid:273b16aa-c3af-4bf6-8516-21122d981327"
      },
      "orderedBy": {
        "coding": [ {
          "system": "http://hl7.org/fhir/list-order",
          "code": "event-date",
          "display": "Sorted by Event Date"
        } ]
      },
      "entry": [ {
        "item": {
          "reference": "urn:uuid:23c48e4c-e52c-4686-bc51-404e63b17c1f"
        }
      }, {
        "item": {
          "reference": "urn:uuid:bb89fbd0-4b90-47bc-b28c-f4cd39aaa579"
        }
      }, {
        "item": {
          "reference": "urn:uuid:e1e954e1-386f-4887-be1e-ffd752cf79bc"
        }
      }, {
        "item": {
          "reference": "urn:uuid:b299c99b-f103-4e5d-bf01-62efe7a5a5ed"
        }
      }, {
        "item": {
          "reference": "urn:uuid:27be2e1c-b933-4d6f-bb5a-9d2c901cd780"
        }
      }, {
        "item": {
          "reference": "urn:uuid:9740f035-496d-41d6-aa44-10ee7a98afb9"
        }
      }, {
        "item": {
          "reference": "urn:uuid:c5c297af-6f6e-4622-ba50-e307ce2925a0"
        }
      }, {
        "item": {
          "reference": "urn:uuid:55a264f1-aee2-4f81-abfa-21b231d32007"
        }
      }, {
        "item": {
          "reference": "urn:uuid:eff322fb-cb86-4d9a-9925-2fedf754d7ff"
        }
      }, {
        "item": {
          "reference": "urn:uuid:d2e9082a-1815-49d8-8aeb-18dd97dfed30"
        }
      }, {
        "item": {
          "reference": "urn:uuid:df28781c-1edd-4b17-82a2-aa13f5cb418d"
        }
      }, {
        "item": {
          "reference": "urn:uuid:e63b38da-287c-4921-9d1a-7515cb796faa"
        }
      }, {
        "item": {
          "reference": "urn:uuid:1c9ca487-b5fd-4595-a719-307eb69d09b5"
        }
      }, {
        "item": {
          "reference": "urn:uuid:c9ca6ab0-b0fa-45aa-a7dc-30ccb9eb48df"
        }
      }, {
        "item": {
          "reference": "urn:uuid:c3ac8eaa-28cc-450a-8c66-de0532d95def"
        }
      }, {
        "item": {
          "reference": "urn:uuid:8fe0ffda-1a81-45fb-bd90-d59eed92e132"
        }
      }, {
        "item": {
          "reference": "urn:uuid:0fe7d5bd-bf97-47a0-87b0-5bcd5bb9e461"
        }
      }, {
        "item": {
          "reference": "urn:uuid:f379f8c7-d418-4a7e-a2f1-696dc3a9c9cc"
        }
      }, {
        "item": {
          "reference": "urn:uuid:7122ab4f-6f92-4a7f-8c71-cd52bb2c02e4"
        }
      }, {
        "item": {
          "reference": "urn:uuid:0bc0fa75-165c-40b5-a5f1-b1b52ea1710d"
        }
      }, {
        "item": {
          "reference": "urn:uuid:221fbd90-e48f-44c9-b8ab-e53d4c602f75"
        }
      }, {
        "item": {
          "reference": "urn:uuid:63a2a036-ea65-44bb-8fad-1e641e05cfe9"
        }
      }, {
        "item": {
          "reference": "urn:uuid:958a1efa-49c1-4ecb-891d-9083dcdebf57"
        }
      }, {
        "item": {
          "reference": "urn:uuid:6108dcf8-f255-422b-a20f-4855810c3b6d"
        }
      }, {
        "item": {
          "reference": "urn:uuid:1431fc0e-7986-4c61-9161-e166c2c3fede"
        }
      }, {
        "item": {
          "reference": "urn:uuid:141978ab-e990-4ff0-9c9f-ebcf50a76049"
        }
      }, {
        "item": {
          "reference": "urn:uuid:4dbdebf6-0cd8-4a2a-9a6f-2fa4aefff645"
        }
      }, {
        "item": {
          "reference": "urn:uuid:5af4b2b7-7855-432e-9559-2bb020608030"
        }
      }, {
        "item": {
          "reference": "urn:uuid:8cd08f34-e019-4a0a-940d-31f04a687058"
        }
      }, {
        "item": {
          "reference": "urn:uuid:e24f0ed4-a324-4cbf-a27d-698d2448d2c8"
        }
      }, {
        "item": {
          "reference": "urn:uuid:633b11dd-6c56-4a60-898d-641d33d318e0"
        }
      }, {
        "item": {
          "reference": "urn:uuid:d5f7466d-89e0-4654-8b06-ff732b478132"
        }
      }, {
        "item": {
          "reference": "urn:uuid:4cf3809d-1dcd-457d-b97f-7bf04b660217"
        }
      }, {
        "item": {
          "reference": "urn:uuid:17c423e0-240c-46bd-9706-5282f4e9b9f5"
        }
      }, {
        "item": {
          "reference": "urn:uuid:030627c2-7c49-4fdf-804a-971fbf897335"
        }
      }, {
        "item": {
          "reference": "urn:uuid:0d4ffd90-afcd-4e59-bb28-b6fad85e2d81"
        }
      }, {
        "item": {
          "reference": "urn:uuid:7e011e7f-39e7-48c7-8498-4fa6581b866b"
        }
      }, {
        "item": {
          "reference": "urn:uuid:ceac6d6b-e464-4400-a553-fc20961ffcca"
        }
      }, {
        "item": {
          "reference": "urn:uuid:33d583c4-3580-4b27-82f5-a6a66e194bcc"
        }
      }, {
        "item": {
          "reference": "urn:uuid:96b271c2-ce31-4daf-adf7-6f6b3e44874d"
        }
      }, {
        "item": {
          "reference": "urn:uuid:87cd2780-4670-4dfd-a7a0-93aa6893014d"
        }
      }, {
        "item": {
          "reference": "urn:uuid:6b3d1db5-9ca9-42b4-9714-cb488ca2435a"
        }
      }, {
        "item": {
          "reference": "urn:uuid:e71c8e40-ce98-474e-b8f1-158716519576"
        }
      }, {
        "item": {
          "reference": "urn:uuid:0d1c3e99-6143-4ec8-a15e-5eec124d6115"
        }
      }, {
        "item": {
          "reference": "urn:uuid:96e93647-3bbc-4007-9a33-edf0cab81f4a"
        }
      }, {
        "item": {
          "reference": "urn:uuid:ec21ac4c-f33d-44bf-8753-cb1101988263"
        }
      }, {
        "item": {
          "reference": "urn:uuid:8f04f1d2-2348-41b3-8d8f-4b0017e1fa6a"
        }
      }, {
        "item": {
          "reference": "urn:uuid:85305668-1746-4666-91c2-e2bab1cdd7a5"
        }
      }, {
        "item": {
          "reference": "urn:uuid:03d8638b-8a68-4c97-9033-54f386883677"
        }
      }, {
        "item": {
          "reference": "urn:uuid:d146e6af-0f79-4240-8ea0-f087836932cd"
        }
      }, {
        "item": {
          "reference": "urn:uuid:2f69b309-1ffb-47fb-b329-d13bba6932c2"
        }
      }, {
        "item": {
          "reference": "urn:uuid:149b9aa1-95f9-4f14-8e49-b61d7320ef7b"
        }
      }, {
        "item": {
          "reference": "urn:uuid:0b75f091-4e5d-4ade-882e-f38552b49f71"
        }
      }, {
        "item": {
          "reference": "urn:uuid:7700c889-7c29-40fd-aeb0-cdde01035553"
        }
      }, {
        "item": {
          "reference": "urn:uuid:4de2a44e-be27-4b8e-963b-d2993c9ad3fa"
        }
      }, {
        "item": {
          "reference": "urn:uuid:ae6db7cb-ffc9-46bb-b495-d8c9cf15d5d8"
        }
      }, {
        "item": {
          "reference": "urn:uuid:bff7f441-e039-4673-a63a-bbf5ee7f6b0a"
        }
      }, {
        "item": {
          "reference": "urn:uuid:430b64de-7ef6-4523-881b-d2fa267bc46a"
        }
      }, {
        "item": {
          "reference": "urn:uuid:9849334b-492b-4e00-b540-d4c34e2af120"
        }
      }, {
        "item": {
          "reference": "urn:uuid:92f93ccf-2025-4b3a-8f00-d2dbe19e6305"
        }
      }, {
        "item": {
          "reference": "urn:uuid:6f4b2a2b-ace5-4864-b04e-a851a33464bc"
        }
      }, {
        "item": {
          "reference": "urn:uuid:4eeb8b52-e393-44f8-8cb5-96a4078317a9"
        }
      }, {
        "item": {
          "reference": "urn:uuid:e8a6170b-eaa8-44b7-916e-55309eef18ee"
        }
      }, {
        "item": {
          "reference": "urn:uuid:08063d7f-8980-4aaa-80d5-fe651e2383e9"
        }
      }, {
        "item": {
          "reference": "urn:uuid:45a8e4c4-c0f9-4f19-8587-312244294d92"
        }
      }, {
        "item": {
          "reference": "urn:uuid:e8bf8673-cb26-43d8-a256-358bf7e8f381"
        }
      }, {
        "item": {
          "reference": "urn:uuid:51ebc3a0-c27c-4de2-94e5-58c53826cb75"
        }
      }, {
        "item": {
          "reference": "urn:uuid:4808562c-c108-4580-91da-020771f26928"
        }
      }, {
        "item": {
          "reference": "urn:uuid:ef254b1b-28c5-41f4-b7f3-e15cf45e1210"
        }
      }, {
        "item": {
          "reference": "urn:uuid:323f607e-1af0-4798-9892-69ca4bd7dc80"
        }
      }, {
        "item": {
          "reference": "urn:uuid:badf1828-30fb-42aa-9124-95649865a1ee"
        }
      }, {
        "item": {
          "reference": "urn:uuid:554aac57-9fe3-44a5-871c-19f0fe58b430"
        }
      }, {
        "item": {
          "reference": "urn:uuid:7218b42e-b471-4393-a500-178c47f05714"
        }
      }, {
        "item": {
          "reference": "urn:uuid:ce80a080-acd7-414d-bdc2-5f7b8601c252"
        }
      }, {
        "item": {
          "reference": "urn:uuid:d9bc71e7-0f22-4e5f-9a25-50672d8cdced"
        }
      }, {
        "item": {
          "reference": "urn:uuid:7e28d91e-c729-4095-bf6f-b9d29764d4c7"
        }
      }, {
        "item": {
          "reference": "urn:uuid:460bdde8-650b-4882-b84b-53a2cb23deb9"
        }
      }, {
        "item": {
          "reference": "urn:uuid:da85634c-e18c-4057-9302-075e98a52155"
        }
      }, {
        "item": {
          "reference": "urn:uuid:1987cce4-95ef-4ae2-a661-ff4fdb347420"
        }
      }, {
        "item": {
          "reference": "urn:uuid:a0a70ac7-4909-490e-bb86-d93c0563d820"
        }
      }, {
        "item": {
          "reference": "urn:uuid:8fbad1c7-f804-4c37-b1e4-e7aa39eb8fdd"
        }
      }, {
        "item": {
          "reference": "urn:uuid:4fb15665-6980-4a2e-b80f-85a69d0ba657"
        }
      }, {
        "item": {
          "reference": "urn:uuid:6ef74217-ed9c-45a8-a604-4c1f0f1bd311"
        }
      }, {
        "item": {
          "reference": "urn:uuid:ea047174-2205-4b2a-b024-7e2ff74cdc8b"
        }
      }, {
        "item": {
          "reference": "urn:uuid:dbab699f-2509-4cad-b9e6-48774c698b0c"
        }
      }, {
        "item": {
          "reference": "urn:uuid:b0c51f27-581a-4549-8582-67828829092f"
        }
      }, {
        "item": {
          "reference": "urn:uuid:956e2d2b-74c9-4e08-8be5-cf5d57c03ea2"
        }
      }, {
        "item": {
          "reference": "urn:uuid:e9e7a7a9-99b5-4583-96d0-d38a28d3960d"
        }
      }, {
        "item": {
          "reference": "urn:uuid:cd86955c-4265-43bd-800d-3f967a7deb40"
        }
      }, {
        "item": {
          "reference": "urn:uuid:4a558858-95cc-4c3e-abeb-c1a360503dea"
        }
      }, {
        "item": {
          "reference": "urn:uuid:572047f3-0ab0-4d3f-9134-b23826d24df3"
        }
      }, {
        "item": {
          "reference": "urn:uuid:240e251f-ebb2-4ae4-b721-5ae243d9cff4"
        }
      }, {
        "item": {
          "reference": "urn:uuid:02440884-c6b8-4660-a1cb-2935a4190a27"
        }
      }, {
        "item": {
          "reference": "urn:uuid:9eb059fe-6271-45b0-a4a2-e3e930f92992"
        }
      }, {
        "item": {
          "reference": "urn:uuid:e379a8e7-d76d-4ff6-8066-95ffc1448ef7"
        }
      }, {
        "item": {
          "reference": "urn:uuid:0120f02f-00fe-4975-a31a-3c02686160a1"
        }
      }, {
        "item": {
          "reference": "urn:uuid:b3364688-11df-4252-8979-e18c73ca8050"
        }
      }, {
        "item": {
          "reference": "urn:uuid:5b24c470-aee0-40fd-929a-fd80fbc7ea80"
        }
      }, {
        "item": {
          "reference": "urn:uuid:c776ee6a-f16d-4a92-9470-f0e443599b8c"
        }
      }, {
        "item": {
          "reference": "urn:uuid:7cdb3f48-85a6-4463-9263-cbb82cd967e8"
        }
      }, {
        "item": {
          "reference": "urn:uuid:84f219d1-248b-44d1-9e3d-973a72fb6e2a"
        }
      }, {
        "item": {
          "reference": "urn:uuid:b339bd3c-d228-4c66-8e14-644a48e8e480"
        }
      }, {
        "item": {
          "reference": "urn:uuid:b0978f92-a72a-43d6-836d-079ab6116263"
        }
      }, {
        "item": {
          "reference": "urn:uuid:bb48ed24-2a64-4945-abb3-abc96a23685e"
        }
      }, {
        "item": {
          "reference": "urn:uuid:97e79db7-3506-4f98-b5fa-4ec660c50679"
        }
      }, {
        "item": {
          "reference": "urn:uuid:329751a8-fa2b-4ed7-ac42-a5f587fe8c2b"
        }
      }, {
        "item": {
          "reference": "urn:uuid:1afde395-48c6-44d5-b6c1-85012e270ecc"
        }
      }, {
        "item": {
          "reference": "urn:uuid:497787f0-3994-4771-b876-56954eee06db"
        }
      }, {
        "item": {
          "reference": "urn:uuid:d817a376-6a8a-4a11-b94c-0504b7142935"
        }
      }, {
        "item": {
          "reference": "urn:uuid:fab12548-390d-4959-ae90-a8d53eeec029"
        }
      }, {
        "item": {
          "reference": "urn:uuid:9c1a47b4-b88f-41ab-9077-64529b96f8e1"
        }
      }, {
        "item": {
          "reference": "urn:uuid:9f65e2fc-b727-4cf5-a785-84255d9c6af7"
        }
      }, {
        "item": {
          "reference": "urn:uuid:c8ff2f60-df23-49d9-ab18-bd6518669814"
        }
      }, {
        "item": {
          "reference": "urn:uuid:656a295d-6f97-4960-bea3-9b8057e395ae"
        }
      }, {
        "item": {
          "reference": "urn:uuid:5fd2464c-09b2-4d08-ab12-096954943de6"
        }
      }, {
        "item": {
          "reference": "urn:uuid:abcc26d0-31d5-47a8-a253-bcce26a0ca3f"
        }
      }, {
        "item": {
          "reference": "urn:uuid:ab922e99-d67a-4549-8964-912e779ee220"
        }
      }, {
        "item": {
          "reference": "urn:uuid:68276507-8850-4917-8de8-bb888a20602d"
        }
      }, {
        "item": {
          "reference": "urn:uuid:58a72209-a1ed-4a27-bd02-ad61ccc35d2c"
        }
      }, {
        "item": {
          "reference": "urn:uuid:2a7b0a68-61f5-482a-b62f-8db803216ff7"
        }
      }, {
        "item": {
          "reference": "urn:uuid:e857e11c-b389-4481-9c71-126aeb27336d"
        }
      }, {
        "item": {
          "reference": "urn:uuid:b45a6614-a231-49a5-8f62-f22ebbdae8ff"
        }
      }, {
        "item": {
          "reference": "urn:uuid:65b44873-8bcb-4b91-9784-4f6b91d97963"
        }
      }, {
        "item": {
          "reference": "urn:uuid:7b2f3d9d-bc76-4c1a-8308-d188aeab3c62"
        }
      }, {
        "item": {
          "reference": "urn:uuid:564949ad-9094-44e1-9c5c-2eb159568eb2"
        }
      }, {
        "item": {
          "reference": "urn:uuid:b08f6b45-b33d-4729-86d3-ca472717f588"
        }
      }, {
        "item": {
          "reference": "urn:uuid:1a806bc9-7224-414e-a345-31d1808fe02d"
        }
      }, {
        "item": {
          "reference": "urn:uuid:83e037c8-0869-4340-ad4c-11e8999d184b"
        }
      }, {
        "item": {
          "reference": "urn:uuid:125dc900-5013-4515-962f-a28cb2631331"
        }
      }, {
        "item": {
          "reference": "urn:uuid:45e0bd49-d459-41cd-99bf-6118a9ec08f0"
        }
      }, {
        "item": {
          "reference": "urn:uuid:3aa1e8c3-e9be-4e50-95fb-fc82115c600b"
        }
      }, {
        "item": {
          "reference": "urn:uuid:ecca80f7-18d7-4de6-80d5-2c1ecadcacda"
        }
      }, {
        "item": {
          "reference": "urn:uuid:9af2c150-efb8-4bbf-a41c-87dc75797f42"
        }
      }, {
        "item": {
          "reference": "urn:uuid:509ccf39-fc0a-4661-b3ff-dce5e654c853"
        }
      }, {
        "item": {
          "reference": "urn:uuid:644df005-752f-4537-8d71-ead6310b57ab"
        }
      }, {
        "item": {
          "reference": "urn:uuid:fcc7b030-ce9f-46ec-9839-21a7d869c7e0"
        }
      }, {
        "item": {
          "reference": "urn:uuid:d8f98367-06ff-4077-bc00-b2892dcfd2cf"
        }
      }, {
        "item": {
          "reference": "urn:uuid:d82b3f66-5153-4096-aaf6-25b34196bb4e"
        }
      }, {
        "item": {
          "reference": "urn:uuid:202825e3-1085-45bf-9175-fcbf47cbb219"
        }
      }, {
        "item": {
          "reference": "urn:uuid:9bc060fc-4f2c-45ea-bac2-4715c149c4e6"
        }
      }, {
        "item": {
          "reference": "urn:uuid:fd6bf66c-c3a0-4873-814d-80bc9206c3f0"
        }
      }, {
        "item": {
          "reference": "urn:uuid:43031e2f-8c97-4615-acc2-ce91094edd7f"
        }
      }, {
        "item": {
          "reference": "urn:uuid:2aa28602-bb9d-4554-8197-488009b26053"
        }
      }, {
        "item": {
          "reference": "urn:uuid:237a486b-de0b-4bc8-b50c-3e7ad3af6f74"
        }
      }, {
        "item": {
          "reference": "urn:uuid:392db174-c254-4e5b-ac68-5cd1b6a6bcfe"
        }
      }, {
        "item": {
          "reference": "urn:uuid:cf9ac13d-0c5e-4da2-8e63-0962c5c57a42"
        }
      }, {
        "item": {
          "reference": "urn:uuid:0dcdfddb-3674-40e3-8e00-f317a96c1277"
        }
      }, {
        "item": {
          "reference": "urn:uuid:5ca09f2b-6763-43d6-a532-8570a22ca1ed"
        }
      }, {
        "item": {
          "reference": "urn:uuid:6faca857-28fd-40ea-928b-264f501cb8f7"
        }
      }, {
        "item": {
          "reference": "urn:uuid:49286de2-5ab8-48cd-b7ee-f3fd542f5e25"
        }
      }, {
        "item": {
          "reference": "urn:uuid:833e9038-ea9d-4607-88d5-ca1f5660a5f9"
        }
      }, {
        "item": {
          "reference": "urn:uuid:635b594c-ac07-4af6-a765-4957f6612fa3"
        }
      }, {
        "item": {
          "reference": "urn:uuid:122da79a-f56b-4fe1-8739-964a9c12bfc4"
        }
      }, {
        "item": {
          "reference": "urn:uuid:620f6895-e8f6-41a5-b3ac-29aa89ec9b1e"
        }
      }, {
        "item": {
          "reference": "urn:uuid:8e02df64-fcb7-45a5-9006-e870b530e60d"
        }
      }, {
        "item": {
          "reference": "urn:uuid:1ea841d6-fd5b-4f32-8f6f-97be6b78a06d"
        }
      }, {
        "item": {
          "reference": "urn:uuid:add19451-a685-4399-95f7-00119d4f84a0"
        }
      }, {
        "item": {
          "reference": "urn:uuid:0dddb293-e591-4b77-ab79-9ad83deab41d"
        }
      } ]
    }
  } ]
}