{
  "resourceType": "Bundle",
  "identifier": {
    "type": {
      "text": "ClinicalDocument VersionNumber"
    },
    "value": "1"
  },
  "type": "message",
  "entry": [ {
    "fullUrl": "urn:uuid:2F182787-CA39-46F8-9B1C-8E77F3050067",
    "resource": {
      "resourceType": "MessageHeader",
      "id": "2F182787-CA39-46F8-9B1C-8E77F3050067",
      "event": {
        "system": "https://fhir.nhs.uk/STU3/CodeSystem/EventType-1",
        "code": "referral-1",
        "display": "Referral"
      },
      "destination": [ {
        "endpoint": "urn:nhs-uk:addressing:ods:FDH68RPX:DOSServiceID:2000038407"
      } ],
      "timestamp": "2021-04-06T11:29:27.000+00:00",
      "source": {
        "name": "NHS 111 Adaptor",
        "endpoint": "http://localhost:8080/report"
      },
      "reason": {
        "coding": [ {
          "system": "urn:nhs-itk:ns:201005:interaction",
          "code": "urn:nhs-itk:interaction:primaryOutofHourRecipientNHS111CDADocument-v2-0"
        } ]
      }
    }
  }, {
    "fullUrl": "urn:uuid:acb73fd5-c9e9-47de-b01a-50e55b02bdc5",
    "resource": {
      "resourceType": "Encounter",
      "id": "acb73fd5-c9e9-47de-b01a-50e55b02bdc5",
      "identifier": [ {
        "system": "2.16.840.1.113883.2.1.3.2.4.18.34",
        "value": "CAC4BF79-AF64-47E2-8162-53438279E2F9"
      }, {
        "system": "2.16.840.1.113883.2.1.3.2.4.18.35",
        "value": "59263"
      }, {
        "system": "2.16.840.1.113883.2.1.3.2.4.18.49",
        "value": "CAC4BF79-AF64-47E2-8162-53438279E2F9"
      } ],
      "status": "finished",
      "type": [ {
        "text": "111 Encounter Referral"
      } ],
      "subject": {
        "reference": "urn:uuid:1f1dee0d-ae77-46f1-8807-90b80d5cdb9e"
      },
      "participant": [ {
        "type": [ {
          "coding": [ {
            "system": "http://hl7.org/fhir/ValueSet/encounter-participant-type",
            "code": "PPRF",
            "display": "Author"
          } ]
        } ],
        "individual": {
          "reference": "urn:uuid:3e2808a9-d813-4d4b-abd7-582387f558bb"
        }
      }, {
        "type": [ {
          "text": "Informant"
        } ],
        "individual": {
          "reference": "urn:uuid:3bd32535-7323-4774-82d9-d60d15b6cd65"
        }
      }, {
        "type": [ {
          "coding": [ {
            "system": "http://hl7.org/fhir/ValueSet/encounter-participant-type",
            "code": "ATND",
            "display": "Responsible Party"
          } ]
        } ],
        "individual": {
          "reference": "urn:uuid:edec3c58-c3b1-49e9-a0e0-bef004f6380d"
        }
      } ],
      "period": {
        "start": "2021-04-06T11:29:27+00:00"
      },
      "location": [ {
        "location": {
          "reference": "urn:uuid:ab9fe621-de5c-43e5-854e-785b5a5152ba"
        },
        "status": "completed"
      } ],
      "serviceProvider": {
        "reference": "urn:uuid:5708c15d-3239-4158-9ab3-6f973c870b88"
      }
    }
  }, {
    "fullUrl": "urn:uuid:5708c15d-3239-4158-9ab3-6f973c870b88",
    "resource": {
      "resourceType": "Organization",
      "id": "5708c15d-3239-4158-9ab3-6f973c870b88",
      "active": true,
      "type": [ {
        "text": "CST"
      } ],
      "name": "SCAS111"
    }
  }, {
    "fullUrl": "urn:uuid:3e2808a9-d813-4d4b-abd7-582387f558bb",
    "resource": {
      "resourceType": "Practitioner",
      "id": "3e2808a9-d813-4d4b-abd7-582387f558bb",
      "active": true,
      "name": [ {
        "use": "official",
        "family": "Hadfield",
        "given": [ "Ryan" ]
      } ]
    }
  }, {
    "fullUrl": "urn:uuid:3bd32535-7323-4774-82d9-d60d15b6cd65",
    "resource": {
      "resourceType": "RelatedPerson",
      "id": "3bd32535-7323-4774-82d9-d60d15b6cd65",
      "active": true,
      "patient": {
        "reference": "urn:uuid:1f1dee0d-ae77-46f1-8807-90b80d5cdb9e"
      },
      "relationship": {
        "coding": [ {
          "system": "2.16.840.1.113883.2.1.3.2.4.16.45",
          "code": "99",
          "display": "Not specified"
        } ]
      },
      "name": [ {
        "text": "Test Caller (Carer - Home)"
      } ],
      "telecom": [ {
        "system": "phone",
        "value": "tel:07777888888",
        "use": "home"
      } ],
      "gender": "unknown"
    }
  }, {
    "fullUrl": "urn:uuid:edec3c58-c3b1-49e9-a0e0-bef004f6380d",
    "resource": {
      "resourceType": "Practitioner",
      "id": "edec3c58-c3b1-49e9-a0e0-bef004f6380d",
      "active": true,
      "name": [ {
        "use": "official",
        "family": "Black",
        "given": [ "John" ]
      } ]
    }
  }, {
    "fullUrl": "urn:uuid:ab9fe621-de5c-43e5-854e-785b5a5152ba",
    "resource": {
      "resourceType": "Location",
      "id": "ab9fe621-de5c-43e5-854e-785b5a5152ba",
      "name": "Incident Location",
      "address": {
        "type": "physical",
        "line": [ "12A", "Otter Close", "Bishopstoke", "Eastleigh", "Hampshire" ],
        "postalCode": "SO50 8NF"
      }
    }
  }, {
    "fullUrl": "urn:uuid:1f1dee0d-ae77-46f1-8807-90b80d5cdb9e",
    "resource": {
      "resourceType": "Patient",
      "id": "1f1dee0d-ae77-46f1-8807-90b80d5cdb9e",
      "identifier": [ {
        "extension": [ {
          "url": "https://fhir.hl7.org.uk/STU3/StructureDefinition/Extension-CareConnect-NHSNumberVerificationStatus-1",
          "valueCodeableConcept": {
            "coding": [ {
              "system": "https://fhir.hl7.org.uk/STU3/StructureDefinition/Extension-CareConnect-NHSNumberVerificationStatus-1",
              "code": "02"
            } ]
          }
        } ],
        "system": "https://fhir.nhs.uk/Id/nhs-number",
        "value": "0000000000"
      } ],
      "active": true,
      "name": [ {
        "use": "official",
        "family": "Testone",
        "given": [ "Test" ]
      } ],
      "telecom": [ {
        "system": "phone",
        "value": "tel:000000000000",
        "use": "home"
      }, {
        "system": "phone",
        "value": "tel:01111111111",
        "use": "mobile"
      }, {
        "system": "phone",
        "value": "tel:000000000000"
      } ],
      "gender": "female",
      "birthDate": "1980-01-01",
      "address": [ {
        "use": "home",
        "line": [ "Southern House", "Sparrowgrove", "Otterbourne", "Winchester", "Hampshire" ],
        "postalCode": "SO21 2RU"
      }, {
        "type": "physical",
        "line": [ "12A", "Otter Close", "Bishopstoke", "Eastleigh", "Hampshire" ],
        "postalCode": "SO50 8NF"
      } ]
    }
  }, {
    "fullUrl": "urn:uuid:6eec6faf-953f-4ff9-8a5f-6647f0c77fe8",
    "resource": {
      "resourceType": "HealthcareService",
      "id": "6eec6faf-953f-4ff9-8a5f-6647f0c77fe8",
      "active": true,
      "providedBy": {
        "reference": "urn:uuid:e02454fb-8ee3-4b75-964f-d7c0ff38f813"
      },
      "location": [ {
        "reference": "urn:uuid:9c581bd4-3236-4e39-8d22-1a8fcdcea8f0"
      } ],
      "name": "Lloyds Pharmacy, Stokewood Close, Fair Oak, Eastleigh"
    }
  }, {
    "fullUrl": "urn:uuid:9c581bd4-3236-4e39-8d22-1a8fcdcea8f0",
    "resource": {
      "resourceType": "Location",
      "id": "9c581bd4-3236-4e39-8d22-1a8fcdcea8f0",
      "managingOrganization": {
        "reference": "urn:uuid:e02454fb-8ee3-4b75-964f-d7c0ff38f813"
      }
    }
  }, {
    "fullUrl": "urn:uuid:e02454fb-8ee3-4b75-964f-d7c0ff38f813",
    "resource": {
      "resourceType": "Organization",
      "id": "e02454fb-8ee3-4b75-964f-d7c0ff38f813",
      "identifier": [ {
        "value": "FDH68RPX"
      } ],
      "type": [ {
        "coding": [ {
          "code": "PRCP",
          "display": "Lloyds Pharmacy, Stokewood Close, Fair Oak, Eastleigh"
        } ]
      } ],
      "name": "Lloyds Pharmacy, Stokewood Close, Fair Oak, Eastleigh"
    }
  }, {
    "fullUrl": "urn:uuid:009da09d-8986-4c76-ab43-2c192ee44df7",
    "resource": {
      "resourceType": "ReferralRequest",
      "id": "009da09d-8986-4c76-ab43-2c192ee44df7",
      "status": "active",
      "intent": "plan",
      "priority": "routine",
      "subject": {
        "reference": "urn:uuid:1f1dee0d-ae77-46f1-8807-90b80d5cdb9e"
      },
      "context": {
        "reference": "urn:uuid:acb73fd5-c9e9-47de-b01a-50e55b02bdc5"
      },
      "occurrencePeriod": {
        "start": "2021-10-11T06:41:47+00:00",
        "end": "2021-10-11T07:41:47+00:00"
      },
      "authoredOn": "2021-04-06T11:29:25+00:00",
      "requester": {
        "agent": {
          "reference": "urn:uuid:be82ac61-a0e2-4d00-9556-073edad9a9ef"
        },
        "onBehalfOf": {
          "reference": "urn:uuid:5708c15d-3239-4158-9ab3-6f973c870b88"
        }
      },
      "recipient": [ {
        "reference": "urn:uuid:6eec6faf-953f-4ff9-8a5f-6647f0c77fe8"
      } ],
      "reasonReference": [ {
        "reference": "urn:uuid:88ebb58f-458f-4272-9ace-a9b574cb87d4"
      } ],
      "supportingInfo": [ {
        "reference": "urn:uuid:666aaefb-107e-4498-8b13-fe6e5fb782ab"
      } ]
    }
  }, {
    "fullUrl": "urn:uuid:666aaefb-107e-4498-8b13-fe6e5fb782ab",
    "resource": {
      "resourceType": "ProcedureRequest",
      "id": "666aaefb-107e-4498-8b13-fe6e5fb782ab",
      "status": "active",
      "intent": "plan",
      "priority": "routine",
      "doNotPerform": false,
      "code": {
        "coding": [ {
          "system": "2.16.840.1.113883.2.1.3.2.4.17.325",
          "code": "Dx86",
          "display": "Repeat Prescription required within 12 hours"
        } ]
      },
      "subject": {
        "reference": "urn:uuid:1f1dee0d-ae77-46f1-8807-90b80d5cdb9e"
      },
      "occurrencePeriod": {
        "start": "2021-10-11T06:41:47+00:00",
        "end": "2021-10-11T07:41:47+00:00"
      },
      "reasonReference": [ {
        "reference": "urn:uuid:88ebb58f-458f-4272-9ace-a9b574cb87d4"
      } ]
    }
  }, {
    "fullUrl": "urn:uuid:6757134c-ca35-444c-a700-6368a5b66b43",
    "resource": {
      "resourceType": "Composition",
      "id": "6757134c-ca35-444c-a700-6368a5b66b43",
      "identifier": {
        "use": "usual",
        "value": "B66502CD-A9B4-4F3E-83EB-981F572C2C91"
      },
      "status": "final",
      "type": {
        "coding": [ {
          "system": "http://snomed.info/sct",
          "code": "371531000",
          "display": "Report of clinical encounter (record artifact)"
        } ]
      },
      "subject": {
        "reference": "urn:uuid:1f1dee0d-ae77-46f1-8807-90b80d5cdb9e"
      },
      "encounter": {
        "reference": "urn:uuid:acb73fd5-c9e9-47de-b01a-50e55b02bdc5"
      },
      "date": "2021-10-11T06:41:47+00:00",
      "author": [ {
        "reference": "urn:uuid:3e2808a9-d813-4d4b-abd7-582387f558bb"
      } ],
      "title": "111 Report",
      "confidentiality": "N",
      "section": [ {
        "section": [ {
          "title": "Patient's Reported Condition",
          "text": {
            "status": "generated",
            "div": "<div xmlns=\"http://www.w3.org/1999/xhtml\">&lt;content&gt;test&lt;/content&gt;\n                                                    &lt;br/&gt;</div>"
          }
        }, {
          "title": "Pathways Disposition",
          "text": {
            "status": "generated",
            "div": "<div xmlns=\"http://www.w3.org/1999/xhtml\">Repeat Prescription required within 12 hours (Dx86)                                         &lt;br/&gt;\n                                                    &lt;br/&gt;                                         Selected service: Lloyds Pharmacy, Stokewood Close, Fair Oak, Eastle&lt;br/&gt;</div>"
          }
        }, {
          "title": "Consultation Summary",
          "text": {
            "status": "generated",
            "div": "<div xmlns=\"http://www.w3.org/1999/xhtml\">Prescription request&lt;br/&gt;Not enough medication until surgery opens&lt;br/&gt;No medication available&lt;br/&gt;Next dose due within next 12 hours&lt;br/&gt;</div>"
          }
        }, {
          "title": "Pathways Assessment",
          "text": {
            "status": "generated",
            "div": "<div xmlns=\"http://www.w3.org/1999/xhtml\">Reason for call menu - continued to next list.&lt;br/&gt;A prescription request was the main reason for the contact.&lt;br/&gt;The main reason for the contact was not a new or worsening illness.&lt;br/&gt;The individual did not have enough medication to last until the surgery next opened.&lt;br/&gt;The medication was suitable for repeat prescribing without further consultation.&lt;br/&gt;The individual had no medication available.&lt;br/&gt;The next dose was due within 12 hours.&lt;br/&gt;Instructions given were: The individual needs a repeat prescription.&lt;br/&gt;Directory of Services referral: Lloyds Pharmacy, Stokewood Close, Fair Oak, Eastleigh&lt;br/&gt;</div>"
          }
        }, {
          "title": "Advice Given",
          "text": {
            "status": "generated",
            "div": "<div xmlns=\"http://www.w3.org/1999/xhtml\">IF THE RECOMMENDED TIMEFRAME FALLS OUTSIDE OPENING HOURS: I will arrange for a clinician to speak to the individual.&lt;br/&gt;\n                                                    &lt;br/&gt;</div>"
          }
        }, {
          "title": "Information And Advice Given"
        }, {
          "title": "Disposition",
          "text": {
            "status": "generated",
            "div": "<div xmlns=\"http://www.w3.org/1999/xhtml\">&lt;content&gt;Repeat Prescription required within 12 hours&lt;br/&gt;\n                                                    &lt;/content&gt;\n                                                    &lt;br/&gt;\n                                                    &lt;br/&gt;</div>"
          }
        } ]
      }, {
        "title": "CarePlan",
        "entry": [ {
          "reference": "urn:uuid:7f5079b1-9046-4567-a744-8f4f9350712b"
        } ]
      }, {
        "title": "ReferralRequest",
        "entry": [ {
          "reference": "urn:uuid:009da09d-8986-4c76-ab43-2c192ee44df7"
        } ]
      }, {
        "title": "QuestionnaireResponse",
        "entry": [ {
          "reference": "urn:uuid:5e85df82-1c2a-4087-a1df-d1a5838e7fa1"
        } ]
      }, {
        "title": "QuestionnaireResponse",
        "entry": [ {
          "reference": "urn:uuid:2121dd6b-3225-4d36-bc43-6ce2f627ecf8"
        } ]
      }, {
        "title": "QuestionnaireResponse",
        "entry": [ {
          "reference": "urn:uuid:3817dfdc-a29d-49ed-91e0-928636974cdb"
        } ]
      }, {
        "title": "QuestionnaireResponse",
        "entry": [ {
          "reference": "urn:uuid:ff798944-5c93-4006-a31c-357ebb4b7cee"
        } ]
      }, {
        "title": "QuestionnaireResponse",
        "entry": [ {
          "reference": "urn:uuid:2ba7dc95-51fe-4dff-b59a-5d3c63245c86"
        } ]
      }, {
        "title": "QuestionnaireResponse",
        "entry": [ {
          "reference": "urn:uuid:3fb8d4f3-8c0e-491c-9a32-acd982d119e7"
        } ]
      }, {
        "title": "QuestionnaireResponse",
        "entry": [ {
          "reference": "urn:uuid:16901023-1ac1-417f-81d3-3c2203b85add"
        } ]
      }, {
        "title": "QuestionnaireResponse",
        "entry": [ {
          "reference": "urn:uuid:ca9e02af-840b-404b-b1f1-69e25d85155b"
        } ]
      }, {
        "title": "QuestionnaireResponse",
        "entry": [ {
          "reference": "urn:uuid:2d20c9e2-1033-4e96-bea0-f6ca71d47ac0"
        } ]
      }, {
        "title": "QuestionnaireResponse",
        "entry": [ {
          "reference": "urn:uuid:bad873e4-ed02-421c-87bd-5d4b5fb21f3f"
        } ]
      }, {
        "title": "QuestionnaireResponse",
        "entry": [ {
          "reference": "urn:uuid:5de7aac4-e36e-492f-aad0-2539df1a32ec"
        } ]
      }, {
        "title": "QuestionnaireResponse",
        "entry": [ {
          "reference": "urn:uuid:75479724-e2ca-4c76-982a-5aa553d1df56"
        } ]
      }, {
        "title": "QuestionnaireResponse",
        "entry": [ {
          "reference": "urn:uuid:57fa0498-5a4a-4ba7-9588-e296879dbbb1"
        } ]
      }, {
        "title": "QuestionnaireResponse",
        "entry": [ {
          "reference": "urn:uuid:8e750365-41a3-4017-ab89-a9e768b60614"
        } ]
      }, {
        "title": "QuestionnaireResponse",
        "entry": [ {
          "reference": "urn:uuid:45875114-6c11-4cd6-8e5a-ddeeddcc5b85"
        } ]
      }, {
        "title": "QuestionnaireResponse",
        "entry": [ {
          "reference": "urn:uuid:a3005767-9581-4c6f-a1d9-0a35ce510dbe"
        } ]
      }, {
        "title": "QuestionnaireResponse",
        "entry": [ {
          "reference": "urn:uuid:5e239bf7-5a4a-41f7-9dcc-381304e391a5"
        } ]
      }, {
        "title": "QuestionnaireResponse",
        "entry": [ {
          "reference": "urn:uuid:bc95be51-872e-469f-9e49-fb62da95049f"
        } ]
      }, {
        "title": "QuestionnaireResponse",
        "entry": [ {
          "reference": "urn:uuid:e2983c2c-a751-4a20-9f2e-3459b07a5cdb"
        } ]
      }, {
        "title": "QuestionnaireResponse",
        "entry": [ {
          "reference": "urn:uuid:c014c32d-8bf3-4149-b66c-3c4ea2a0853b"
        } ]
      }, {
        "title": "QuestionnaireResponse",
        "entry": [ {
          "reference": "urn:uuid:922b7a9b-351c-42ed-8d77-29cd1124a698"
        } ]
      }, {
        "title": "QuestionnaireResponse",
        "entry": [ {
          "reference": "urn:uuid:98beb51c-f2fe-4e7a-bdab-7d50085e0e6d"
        } ]
      }, {
        "title": "QuestionnaireResponse",
        "entry": [ {
          "reference": "urn:uuid:d1c787c3-6f63-4719-b95d-3d173ac5045c"
        } ]
      }, {
        "title": "QuestionnaireResponse",
        "entry": [ {
          "reference": "urn:uuid:7ae6b8a1-0a28-44f1-a506-7262eb757b0b"
        } ]
      }, {
        "title": "QuestionnaireResponse",
        "entry": [ {
          "reference": "urn:uuid:531ca78a-0586-413a-aa04-6d21d8f0f280"
        } ]
      }, {
        "title": "QuestionnaireResponse",
        "entry": [ {
          "reference": "urn:uuid:c71abc80-edce-4694-8990-fcc1860bf35d"
        } ]
      }, {
        "title": "QuestionnaireResponse",
        "entry": [ {
          "reference": "urn:uuid:ae4ec30a-07bf-489e-9d38-27e86c034750"
        } ]
      }, {
        "title": "QuestionnaireResponse",
        "entry": [ {
          "reference": "urn:uuid:9d8562a6-524f-431b-b66a-1e9b9f496629"
        } ]
      }, {
        "title": "QuestionnaireResponse",
        "entry": [ {
          "reference": "urn:uuid:45d5d771-2d0d-42cf-9ec3-68063b904b55"
        } ]
      }, {
        "title": "QuestionnaireResponse",
        "entry": [ {
          "reference": "urn:uuid:4d06e318-b7cf-4633-8875-0e02e3e5101f"
        } ]
      }, {
        "title": "QuestionnaireResponse",
        "entry": [ {
          "reference": "urn:uuid:147e0dc0-0219-4eb0-9513-d08673730955"
        } ]
      }, {
        "title": "QuestionnaireResponse",
        "entry": [ {
          "reference": "urn:uuid:5125bd42-5ee7-409f-811e-543de6692789"
        } ]
      }, {
        "title": "QuestionnaireResponse",
        "entry": [ {
          "reference": "urn:uuid:1d518ee9-13e3-4fd5-a768-5820f46c1fbe"
        } ]
      }, {
        "title": "QuestionnaireResponse",
        "entry": [ {
          "reference": "urn:uuid:f4c9c642-d878-43dc-87db-214c0030f14f"
        } ]
      }, {
        "title": "QuestionnaireResponse",
        "entry": [ {
          "reference": "urn:uuid:152f6a0e-9d12-4ab5-8876-7dd0ea7e9375"
        } ]
      }, {
        "title": "QuestionnaireResponse",
        "entry": [ {
          "reference": "urn:uuid:8a423eb1-b381-4c12-babd-f48f77cee447"
        } ]
      }, {
        "title": "QuestionnaireResponse",
        "entry": [ {
          "reference": "urn:uuid:d495f92f-120d-4583-83ed-e76b6ca39b36"
        } ]
      }, {
        "title": "QuestionnaireResponse",
        "entry": [ {
          "reference": "urn:uuid:3318f81c-08b1-43ba-be71-727fe3b82ad3"
        } ]
      }, {
        "title": "QuestionnaireResponse",
        "entry": [ {
          "reference": "urn:uuid:52f7f288-ad5d-4c1f-ad7f-d77e50c2376a"
        } ]
      }, {
        "title": "QuestionnaireResponse",
        "entry": [ {
          "reference": "urn:uuid:d934aef8-b919-432d-abe7-3132e2aa9974"
        } ]
      }, {
        "title": "QuestionnaireResponse",
        "entry": [ {
          "reference": "urn:uuid:bc3aa658-0ce9-4ef7-b167-3da41e38bfba"
        } ]
      }, {
        "title": "QuestionnaireResponse",
        "entry": [ {
          "reference": "urn:uuid:b6293771-68dd-4f37-81eb-1d4060389d0f"
        } ]
      }, {
        "title": "QuestionnaireResponse",
        "entry": [ {
          "reference": "urn:uuid:186cad7e-db1d-4112-88bd-543d043be6e5"
        } ]
      }, {
        "title": "QuestionnaireResponse",
        "entry": [ {
          "reference": "urn:uuid:d37aae81-5ff9-4314-adb1-44819d304262"
        } ]
      }, {
        "title": "QuestionnaireResponse",
        "entry": [ {
          "reference": "urn:uuid:6950aedb-362d-4b5d-a495-3cf24290e39b"
        } ]
      }, {
        "title": "QuestionnaireResponse",
        "entry": [ {
          "reference": "urn:uuid:5fb9df24-284e-4cd6-a141-0f688c110f68"
        } ]
      }, {
        "title": "QuestionnaireResponse",
        "entry": [ {
          "reference": "urn:uuid:9a203544-3404-4f1c-8116-50db75be71d8"
        } ]
      }, {
        "title": "QuestionnaireResponse",
        "entry": [ {
          "reference": "urn:uuid:9fed5a9d-2bd0-43db-aafe-751fab9e1319"
        } ]
      }, {
        "title": "QuestionnaireResponse",
        "entry": [ {
          "reference": "urn:uuid:74a843ae-ffa7-45c3-8d81-6886cb9fc4bb"
        } ]
      }, {
        "title": "QuestionnaireResponse",
        "entry": [ {
          "reference": "urn:uuid:aba35a9b-9421-42d4-a7ad-557a30d2d1d6"
        } ]
      }, {
        "title": "QuestionnaireResponse",
        "entry": [ {
          "reference": "urn:uuid:b42b2f0f-4b4e-4c65-92ec-a8cec6686642"
        } ]
      }, {
        "title": "QuestionnaireResponse",
        "entry": [ {
          "reference": "urn:uuid:bf517175-c92e-4c75-8b81-cf62c9d73a18"
        } ]
      }, {
        "title": "QuestionnaireResponse",
        "entry": [ {
          "reference": "urn:uuid:fd25019a-8739-4bb1-98ba-a290873215e1"
        } ]
      }, {
        "title": "QuestionnaireResponse",
        "entry": [ {
          "reference": "urn:uuid:40c159a0-10d9-4308-a09a-0fa41cf33641"
        } ]
      }, {
        "title": "QuestionnaireResponse",
        "entry": [ {
          "reference": "urn:uuid:f9b747db-dc06-443b-a78f-47c30cf913bb"
        } ]
      }, {
        "title": "QuestionnaireResponse",
        "entry": [ {
          "reference": "urn:uuid:4b42ff48-cc8e-4a14-8af0-af8b9eefb6f4"
        } ]
      }, {
        "title": "QuestionnaireResponse",
        "entry": [ {
          "reference": "urn:uuid:8c2dae81-4e4a-4294-be7f-bb62f767b8ea"
        } ]
      }, {
        "title": "QuestionnaireResponse",
        "entry": [ {
          "reference": "urn:uuid:05c0b583-c680-48c4-823e-aa7151ba7537"
        } ]
      }, {
        "title": "QuestionnaireResponse",
        "entry": [ {
          "reference": "urn:uuid:584df5c5-2db1-4011-ae83-87e7dcb2a122"
        } ]
      }, {
        "title": "QuestionnaireResponse",
        "entry": [ {
          "reference": "urn:uuid:d0ab7c63-7180-4f58-8e5d-276074b2cff9"
        } ]
      }, {
        "title": "QuestionnaireResponse",
        "entry": [ {
          "reference": "urn:uuid:3ffa410f-2915-4cb3-a6ed-689e4290b5be"
        } ]
      } ]
    }
  }, {
    "fullUrl": "urn:uuid:7f5079b1-9046-4567-a744-8f4f9350712b",
    "resource": {
      "resourceType": "CarePlan",
      "id": "7f5079b1-9046-4567-a744-8f4f9350712b",
      "status": "completed",
      "intent": "plan",
      "title": "Information And Advice Given",
      "subject": {
        "reference": "urn:uuid:1f1dee0d-ae77-46f1-8807-90b80d5cdb9e"
      },
      "context": {
        "reference": "urn:uuid:acb73fd5-c9e9-47de-b01a-50e55b02bdc5"
      },
      "period": {
        "start": "2021-04-06T11:29:27+00:00"
      },
      "addresses": [ {
        "reference": "urn:uuid:88ebb58f-458f-4272-9ace-a9b574cb87d4"
      } ]
    }
  }, {
    "fullUrl": "urn:uuid:731aa11e-d6da-4e26-90c1-9fae0ff94c25",
    "resource": {
      "resourceType": "Consent",
      "id": "731aa11e-d6da-4e26-90c1-9fae0ff94c25",
      "identifier": {
        "use": "usual",
        "value": "B66502CD-A9B4-4F3E-83EB-981F572C2C91"
      },
      "status": "active",
      "patient": {
        "reference": "urn:uuid:1f1dee0d-ae77-46f1-8807-90b80d5cdb9e"
      },
      "period": {
        "start": "2021-04-06T11:29:27+00:00"
      },
      "consentingParty": [ {
        "reference": "urn:uuid:1f1dee0d-ae77-46f1-8807-90b80d5cdb9e"
      } ],
      "action": [ {
        "coding": [ {
          "system": "http://snomed.info/sct",
          "code": "425691002",
          "display": "Consent given for electronic record sharing"
        } ],
        "text": "Consent given for electronic record sharing"
      } ],
      "organization": [ {
        "reference": "urn:uuid:5708c15d-3239-4158-9ab3-6f973c870b88"
      } ],
      "policyRule": "http://hl7.org/fhir/ConsentPolicy/opt-out",
      "data": [ {
        "meaning": "related",
        "reference": {
          "reference": "urn:uuid:acb73fd5-c9e9-47de-b01a-50e55b02bdc5"
        }
      } ]
    }
  }, {
    "fullUrl": "urn:uuid:88ebb58f-458f-4272-9ace-a9b574cb87d4",
    "resource": {
      "resourceType": "Condition",
      "id": "88ebb58f-458f-4272-9ace-a9b574cb87d4",
      "clinicalStatus": "active",
      "verificationStatus": "unknown",
      "subject": {
        "reference": "urn:uuid:1f1dee0d-ae77-46f1-8807-90b80d5cdb9e"
      },
      "context": {
        "reference": "urn:uuid:acb73fd5-c9e9-47de-b01a-50e55b02bdc5"
      },
      "evidence": [ {
        "detail": [ {
          "reference": "urn:uuid:5e85df82-1c2a-4087-a1df-d1a5838e7fa1"
        } ]
      }, {
        "detail": [ {
          "reference": "urn:uuid:2121dd6b-3225-4d36-bc43-6ce2f627ecf8"
        } ]
      }, {
        "detail": [ {
          "reference": "urn:uuid:3817dfdc-a29d-49ed-91e0-928636974cdb"
        } ]
      }, {
        "detail": [ {
          "reference": "urn:uuid:ff798944-5c93-4006-a31c-357ebb4b7cee"
        } ]
      }, {
        "detail": [ {
          "reference": "urn:uuid:2ba7dc95-51fe-4dff-b59a-5d3c63245c86"
        } ]
      }, {
        "detail": [ {
          "reference": "urn:uuid:3fb8d4f3-8c0e-491c-9a32-acd982d119e7"
        } ]
      }, {
        "detail": [ {
          "reference": "urn:uuid:16901023-1ac1-417f-81d3-3c2203b85add"
        } ]
      }, {
        "detail": [ {
          "reference": "urn:uuid:ca9e02af-840b-404b-b1f1-69e25d85155b"
        } ]
      }, {
        "detail": [ {
          "reference": "urn:uuid:2d20c9e2-1033-4e96-bea0-f6ca71d47ac0"
        } ]
      }, {
        "detail": [ {
          "reference": "urn:uuid:bad873e4-ed02-421c-87bd-5d4b5fb21f3f"
        } ]
      }, {
        "detail": [ {
          "reference": "urn:uuid:5de7aac4-e36e-492f-aad0-2539df1a32ec"
        } ]
      }, {
        "detail": [ {
          "reference": "urn:uuid:75479724-e2ca-4c76-982a-5aa553d1df56"
        } ]
      }, {
        "detail": [ {
          "reference": "urn:uuid:57fa0498-5a4a-4ba7-9588-e296879dbbb1"
        } ]
      }, {
        "detail": [ {
          "reference": "urn:uuid:8e750365-41a3-4017-ab89-a9e768b60614"
        } ]
      }, {
        "detail": [ {
          "reference": "urn:uuid:45875114-6c11-4cd6-8e5a-ddeeddcc5b85"
        } ]
      }, {
        "detail": [ {
          "reference": "urn:uuid:a3005767-9581-4c6f-a1d9-0a35ce510dbe"
        } ]
      }, {
        "detail": [ {
          "reference": "urn:uuid:5e239bf7-5a4a-41f7-9dcc-381304e391a5"
        } ]
      }, {
        "detail": [ {
          "reference": "urn:uuid:bc95be51-872e-469f-9e49-fb62da95049f"
        } ]
      }, {
        "detail": [ {
          "reference": "urn:uuid:e2983c2c-a751-4a20-9f2e-3459b07a5cdb"
        } ]
      }, {
        "detail": [ {
          "reference": "urn:uuid:c014c32d-8bf3-4149-b66c-3c4ea2a0853b"
        } ]
      }, {
        "detail": [ {
          "reference": "urn:uuid:922b7a9b-351c-42ed-8d77-29cd1124a698"
        } ]
      }, {
        "detail": [ {
          "reference": "urn:uuid:98beb51c-f2fe-4e7a-bdab-7d50085e0e6d"
        } ]
      }, {
        "detail": [ {
          "reference": "urn:uuid:d1c787c3-6f63-4719-b95d-3d173ac5045c"
        } ]
      }, {
        "detail": [ {
          "reference": "urn:uuid:7ae6b8a1-0a28-44f1-a506-7262eb757b0b"
        } ]
      }, {
        "detail": [ {
          "reference": "urn:uuid:531ca78a-0586-413a-aa04-6d21d8f0f280"
        } ]
      }, {
        "detail": [ {
          "reference": "urn:uuid:c71abc80-edce-4694-8990-fcc1860bf35d"
        } ]
      }, {
        "detail": [ {
          "reference": "urn:uuid:ae4ec30a-07bf-489e-9d38-27e86c034750"
        } ]
      }, {
        "detail": [ {
          "reference": "urn:uuid:9d8562a6-524f-431b-b66a-1e9b9f496629"
        } ]
      }, {
        "detail": [ {
          "reference": "urn:uuid:45d5d771-2d0d-42cf-9ec3-68063b904b55"
        } ]
      }, {
        "detail": [ {
          "reference": "urn:uuid:4d06e318-b7cf-4633-8875-0e02e3e5101f"
        } ]
      }, {
        "detail": [ {
          "reference": "urn:uuid:147e0dc0-0219-4eb0-9513-d08673730955"
        } ]
      }, {
        "detail": [ {
          "reference": "urn:uuid:5125bd42-5ee7-409f-811e-543de6692789"
        } ]
      }, {
        "detail": [ {
          "reference": "urn:uuid:1d518ee9-13e3-4fd5-a768-5820f46c1fbe"
        } ]
      }, {
        "detail": [ {
          "reference": "urn:uuid:f4c9c642-d878-43dc-87db-214c0030f14f"
        } ]
      }, {
        "detail": [ {
          "reference": "urn:uuid:152f6a0e-9d12-4ab5-8876-7dd0ea7e9375"
        } ]
      }, {
        "detail": [ {
          "reference": "urn:uuid:8a423eb1-b381-4c12-babd-f48f77cee447"
        } ]
      }, {
        "detail": [ {
          "reference": "urn:uuid:d495f92f-120d-4583-83ed-e76b6ca39b36"
        } ]
      }, {
        "detail": [ {
          "reference": "urn:uuid:3318f81c-08b1-43ba-be71-727fe3b82ad3"
        } ]
      }, {
        "detail": [ {
          "reference": "urn:uuid:52f7f288-ad5d-4c1f-ad7f-d77e50c2376a"
        } ]
      }, {
        "detail": [ {
          "reference": "urn:uuid:d934aef8-b919-432d-abe7-3132e2aa9974"
        } ]
      }, {
        "detail": [ {
          "reference": "urn:uuid:bc3aa658-0ce9-4ef7-b167-3da41e38bfba"
        } ]
      }, {
        "detail": [ {
          "reference": "urn:uuid:b6293771-68dd-4f37-81eb-1d4060389d0f"
        } ]
      }, {
        "detail": [ {
          "reference": "urn:uuid:186cad7e-db1d-4112-88bd-543d043be6e5"
        } ]
      }, {
        "detail": [ {
          "reference": "urn:uuid:d37aae81-5ff9-4314-adb1-44819d304262"
        } ]
      }, {
        "detail": [ {
          "reference": "urn:uuid:6950aedb-362d-4b5d-a495-3cf24290e39b"
        } ]
      }, {
        "detail": [ {
          "reference": "urn:uuid:5fb9df24-284e-4cd6-a141-0f688c110f68"
        } ]
      }, {
        "detail": [ {
          "reference": "urn:uuid:9a203544-3404-4f1c-8116-50db75be71d8"
        } ]
      }, {
        "detail": [ {
          "reference": "urn:uuid:9fed5a9d-2bd0-43db-aafe-751fab9e1319"
        } ]
      }, {
        "detail": [ {
          "reference": "urn:uuid:74a843ae-ffa7-45c3-8d81-6886cb9fc4bb"
        } ]
      }, {
        "detail": [ {
          "reference": "urn:uuid:aba35a9b-9421-42d4-a7ad-557a30d2d1d6"
        } ]
      }, {
        "detail": [ {
          "reference": "urn:uuid:b42b2f0f-4b4e-4c65-92ec-a8cec6686642"
        } ]
      }, {
        "detail": [ {
          "reference": "urn:uuid:bf517175-c92e-4c75-8b81-cf62c9d73a18"
        } ]
      }, {
        "detail": [ {
          "reference": "urn:uuid:fd25019a-8739-4bb1-98ba-a290873215e1"
        } ]
      }, {
        "detail": [ {
          "reference": "urn:uuid:40c159a0-10d9-4308-a09a-0fa41cf33641"
        } ]
      }, {
        "detail": [ {
          "reference": "urn:uuid:f9b747db-dc06-443b-a78f-47c30cf913bb"
        } ]
      }, {
        "detail": [ {
          "reference": "urn:uuid:4b42ff48-cc8e-4a14-8af0-af8b9eefb6f4"
        } ]
      }, {
        "detail": [ {
          "reference": "urn:uuid:8c2dae81-4e4a-4294-be7f-bb62f767b8ea"
        } ]
      }, {
        "detail": [ {
          "reference": "urn:uuid:05c0b583-c680-48c4-823e-aa7151ba7537"
        } ]
      }, {
        "detail": [ {
          "reference": "urn:uuid:584df5c5-2db1-4011-ae83-87e7dcb2a122"
        } ]
      }, {
        "detail": [ {
          "reference": "urn:uuid:d0ab7c63-7180-4f58-8e5d-276074b2cff9"
        } ]
      }, {
        "detail": [ {
          "reference": "urn:uuid:3ffa410f-2915-4cb3-a6ed-689e4290b5be"
        } ]
      } ]
    }
  }, {
    "fullUrl": "urn:uuid:5e85df82-1c2a-4087-a1df-d1a5838e7fa1",
    "resource": {
      "resourceType": "QuestionnaireResponse",
      "id": "5e85df82-1c2a-4087-a1df-d1a5838e7fa1",
      "identifier": {
        "value": "59263"
      },
      "questionnaire": {
        "reference": "urn:uuid:6ad21fbe-ccb3-4ba7-af29-7897aa1f8f85"
      },
      "status": "completed",
      "subject": {
        "reference": "urn:uuid:1f1dee0d-ae77-46f1-8807-90b80d5cdb9e"
      },
      "context": {
        "reference": "urn:uuid:acb73fd5-c9e9-47de-b01a-50e55b02bdc5"
      },
      "authored": "2021-04-06T11:29:26+00:00",
      "item": [ {
        "linkId": "Tx220074",
        "text": "What is the reason for the contact?",
        "answer": [ {
          "valueString": "an injury or other health problem"
        } ]
      } ]
    }
  }, {
    "fullUrl": "urn:uuid:6ad21fbe-ccb3-4ba7-af29-7897aa1f8f85",
    "resource": {
      "resourceType": "Questionnaire",
      "id": "6ad21fbe-ccb3-4ba7-af29-7897aa1f8f85",
      "identifier": [ {
        "value": "59263"
      } ],
      "version": "2021-04-06T11:29:26.887Z",
      "status": "active",
      "experimental": false,
      "date": "2021-04-06T11:29:26+00:00",
      "publisher": "User ID: 'HADFIELDR' User name: 'Ryan Hadfield' User skill set: 'T3'",
      "lastReviewDate": "2021-04-06",
      "contact": [ {
        "telecom": [ {
          "system": "phone",
          "value": "07777 888888"
        } ]
      } ],
      "subjectType": [ "Patient" ],
      "item": [ {
        "linkId": "59263",
        "prefix": "5",
        "text": "What is the reason for the contact?",
        "type": "choice",
        "required": true,
        "repeats": false,
        "option": [ {
          "valueString": "an injury or other health problem, Selected: true"
        }, {
          "valueString": "labour or childbirth, Selected: false"
        }, {
          "valueString": "a need to access another healthcare service, Selected: false"
        }, {
          "valueString": "a healthcare professional requesting contact with another clinician, Selected: false"
        }, {
          "valueString": "a report of results or tests, Selected: false"
        }, {
          "valueString": "a possible failure of contraception, Selected: false"
        }, {
          "valueString": "more, Selected: false"
        } ]
      } ]
    }
  }, {
    "fullUrl": "urn:uuid:2121dd6b-3225-4d36-bc43-6ce2f627ecf8",
    "resource": {
      "resourceType": "QuestionnaireResponse",
      "id": "2121dd6b-3225-4d36-bc43-6ce2f627ecf8",
      "identifier": {
        "value": "59263"
      },
      "questionnaire": {
        "reference": "urn:uuid:8ea235ae-8438-46ea-ab86-0c6e47ac142c"
      },
      "status": "completed",
      "subject": {
        "reference": "urn:uuid:1f1dee0d-ae77-46f1-8807-90b80d5cdb9e"
      },
      "context": {
        "reference": "urn:uuid:acb73fd5-c9e9-47de-b01a-50e55b02bdc5"
      },
      "authored": "2021-04-06T11:29:26+00:00",
      "item": [ {
        "linkId": "Tx221807",
        "text": "STRING:to'Immediatethreatstolife(SPA/OOHversion)'-'Majorbloodloss'stem",
        "answer": [ {
          "valueString": "\"present\""
        } ]
      } ]
    }
  }, {
    "fullUrl": "urn:uuid:8ea235ae-8438-46ea-ab86-0c6e47ac142c",
    "resource": {
      "resourceType": "Questionnaire",
      "id": "8ea235ae-8438-46ea-ab86-0c6e47ac142c",
      "identifier": [ {
        "value": "59263"
      } ],
      "version": "2021-04-06T11:29:26.887Z",
      "status": "active",
      "experimental": false,
      "date": "2021-04-06T11:29:26+00:00",
      "publisher": "User ID: 'HADFIELDR' User name: 'Ryan Hadfield' User skill set: 'T3'",
      "lastReviewDate": "2021-04-06",
      "contact": [ {
        "telecom": [ {
          "system": "phone",
          "value": "07777 888888"
        } ]
      } ],
      "subjectType": [ "Patient" ],
      "item": [ {
        "linkId": "59263",
        "prefix": "200",
        "text": "STRING:to'Immediatethreatstolife(SPA/OOHversion)'-'Majorbloodloss'stem",
        "type": "choice",
        "required": true,
        "repeats": false,
        "option": [ {
          "valueString": "\"present\", Selected: true"
        } ]
      } ]
    }
  }, {
    "fullUrl": "urn:uuid:3817dfdc-a29d-49ed-91e0-928636974cdb",
    "resource": {
      "resourceType": "QuestionnaireResponse",
      "id": "3817dfdc-a29d-49ed-91e0-928636974cdb",
      "identifier": {
        "value": "59263"
      },
      "questionnaire": {
        "reference": "urn:uuid:07c153fb-4ac1-402f-99e4-9d23454a4c5e"
      },
      "status": "completed",
      "subject": {
        "reference": "urn:uuid:1f1dee0d-ae77-46f1-8807-90b80d5cdb9e"
      },
      "context": {
        "reference": "urn:uuid:acb73fd5-c9e9-47de-b01a-50e55b02bdc5"
      },
      "authored": "2021-04-06T11:29:26+00:00"
    }
  }, {
    "fullUrl": "urn:uuid:07c153fb-4ac1-402f-99e4-9d23454a4c5e",
    "resource": {
      "resourceType": "Questionnaire",
      "id": "07c153fb-4ac1-402f-99e4-9d23454a4c5e",
      "identifier": [ {
        "value": "59263"
      } ],
      "version": "2021-04-06T11:29:26.887Z",
      "status": "active",
      "experimental": false,
      "date": "2021-04-06T11:29:26+00:00",
      "publisher": "User ID: 'HADFIELDR' User name: 'Ryan Hadfield' User skill set: 'T3'",
      "lastReviewDate": "2021-04-06",
      "contact": [ {
        "telecom": [ {
          "system": "phone",
          "value": "07777 888888"
        } ]
      } ],
      "subjectType": [ "Patient" ]
    }
  }, {
    "fullUrl": "urn:uuid:ff798944-5c93-4006-a31c-357ebb4b7cee",
    "resource": {
      "resourceType": "QuestionnaireResponse",
      "id": "ff798944-5c93-4006-a31c-357ebb4b7cee",
      "identifier": {
        "value": "59263"
      },
      "questionnaire": {
        "reference": "urn:uuid:7cb6f689-2566-41ec-be28-7281b0983a0b"
      },
      "status": "completed",
      "subject": {
        "reference": "urn:uuid:1f1dee0d-ae77-46f1-8807-90b80d5cdb9e"
      },
      "context": {
        "reference": "urn:uuid:acb73fd5-c9e9-47de-b01a-50e55b02bdc5"
      },
      "authored": "2021-04-06T11:29:26+00:00",
      "item": [ {
        "linkId": "Tx221799",
        "text": "STRING:injury,illnessorlabourestablishedinEntryFlow",
        "answer": [ {
          "valueString": "\"present\""
        } ]
      } ]
    }
  }, {
    "fullUrl": "urn:uuid:7cb6f689-2566-41ec-be28-7281b0983a0b",
    "resource": {
      "resourceType": "Questionnaire",
      "id": "7cb6f689-2566-41ec-be28-7281b0983a0b",
      "identifier": [ {
        "value": "59263"
      } ],
      "version": "2021-04-06T11:29:26.887Z",
      "status": "active",
      "experimental": false,
      "date": "2021-04-06T11:29:26+00:00",
      "publisher": "User ID: 'HADFIELDR' User name: 'Ryan Hadfield' User skill set: 'T3'",
      "lastReviewDate": "2021-04-06",
      "contact": [ {
        "telecom": [ {
          "system": "phone",
          "value": "07777 888888"
        } ]
      } ],
      "subjectType": [ "Patient" ],
      "item": [ {
        "linkId": "59263",
        "prefix": "0",
        "text": "STRING:injury,illnessorlabourestablishedinEntryFlow",
        "type": "choice",
        "required": true,
        "repeats": false,
        "option": [ {
          "valueString": "\"present\", Selected: true"
        } ]
      } ]
    }
  }, {
    "fullUrl": "urn:uuid:2ba7dc95-51fe-4dff-b59a-5d3c63245c86",
    "resource": {
      "resourceType": "QuestionnaireResponse",
      "id": "2ba7dc95-51fe-4dff-b59a-5d3c63245c86",
      "identifier": {
        "value": "59263"
      },
      "questionnaire": {
        "reference": "urn:uuid:cf03140a-1aab-4528-8d22-a1a1fb9c0e61"
      },
      "status": "completed",
      "subject": {
        "reference": "urn:uuid:1f1dee0d-ae77-46f1-8807-90b80d5cdb9e"
      },
      "context": {
        "reference": "urn:uuid:acb73fd5-c9e9-47de-b01a-50e55b02bdc5"
      },
      "authored": "2021-04-06T11:29:26+00:00",
      "item": [ {
        "linkId": "Tx224120",
        "text": "Have you been bleeding RED BLOOD very heavily IN THE LAST 2 HOURS?"
      } ]
    }
  }, {
    "fullUrl": "urn:uuid:cf03140a-1aab-4528-8d22-a1a1fb9c0e61",
    "resource": {
      "resourceType": "Questionnaire",
      "id": "cf03140a-1aab-4528-8d22-a1a1fb9c0e61",
      "identifier": [ {
        "value": "59263"
      } ],
      "version": "2021-04-06T11:29:26.887Z",
      "status": "active",
      "experimental": false,
      "date": "2021-04-06T11:29:26+00:00",
      "publisher": "User ID: 'HADFIELDR' User name: 'Ryan Hadfield' User skill set: 'T3'",
      "lastReviewDate": "2021-04-06",
      "contact": [ {
        "telecom": [ {
          "system": "phone",
          "value": "07777 888888"
        } ]
      } ],
      "subjectType": [ "Patient" ],
      "item": [ {
        "linkId": "59263",
        "prefix": "10100",
        "text": "Have you been bleeding RED BLOOD very heavily IN THE LAST 2 HOURS?",
        "type": "choice",
        "required": true,
        "repeats": false,
        "option": [ {
          "valueString": "yes, Selected: false"
        }, {
          "valueString": "not sure, Selected: false"
        }, {
          "valueString": "no, Selected: false"
        } ]
      } ]
    }
  }, {
    "fullUrl": "urn:uuid:3fb8d4f3-8c0e-491c-9a32-acd982d119e7",
    "resource": {
      "resourceType": "QuestionnaireResponse",
      "id": "3fb8d4f3-8c0e-491c-9a32-acd982d119e7",
      "identifier": {
        "value": "59263"
      },
      "questionnaire": {
        "reference": "urn:uuid:2c122583-0ffc-4c2c-b1cc-1a9f72947aac"
      },
      "status": "completed",
      "subject": {
        "reference": "urn:uuid:1f1dee0d-ae77-46f1-8807-90b80d5cdb9e"
      },
      "context": {
        "reference": "urn:uuid:acb73fd5-c9e9-47de-b01a-50e55b02bdc5"
      },
      "authored": "2021-04-06T11:29:26+00:00",
      "item": [ {
        "linkId": "Tx220074",
        "text": "What is the reason for the contact?",
        "answer": [ {
          "valueString": "more"
        } ]
      } ]
    }
  }, {
    "fullUrl": "urn:uuid:2c122583-0ffc-4c2c-b1cc-1a9f72947aac",
    "resource": {
      "resourceType": "Questionnaire",
      "id": "2c122583-0ffc-4c2c-b1cc-1a9f72947aac",
      "identifier": [ {
        "value": "59263"
      } ],
      "version": "2021-04-06T11:29:26.887Z",
      "status": "active",
      "experimental": false,
      "date": "2021-04-06T11:29:26+00:00",
      "publisher": "User ID: 'HADFIELDR' User name: 'Ryan Hadfield' User skill set: 'T3'",
      "lastReviewDate": "2021-04-06",
      "contact": [ {
        "telecom": [ {
          "system": "phone",
          "value": "07777 888888"
        } ]
      } ],
      "subjectType": [ "Patient" ],
      "item": [ {
        "linkId": "59263",
        "prefix": "5",
        "text": "What is the reason for the contact?",
        "type": "choice",
        "required": true,
        "repeats": false,
        "option": [ {
          "valueString": "an injury or other health problem, Selected: false"
        }, {
          "valueString": "labour or childbirth, Selected: false"
        }, {
          "valueString": "a need to access another healthcare service, Selected: false"
        }, {
          "valueString": "a healthcare professional requesting contact with another clinician, Selected: false"
        }, {
          "valueString": "a report of results or tests, Selected: false"
        }, {
          "valueString": "a possible failure of contraception, Selected: false"
        }, {
          "valueString": "more, Selected: true"
        } ]
      } ]
    }
  }, {
    "fullUrl": "urn:uuid:16901023-1ac1-417f-81d3-3c2203b85add",
    "resource": {
      "resourceType": "QuestionnaireResponse",
      "id": "16901023-1ac1-417f-81d3-3c2203b85add",
      "identifier": {
        "value": "59263"
      },
      "questionnaire": {
        "reference": "urn:uuid:40344990-e70b-4651-989a-2b4d2ea46918"
      },
      "status": "completed",
      "subject": {
        "reference": "urn:uuid:1f1dee0d-ae77-46f1-8807-90b80d5cdb9e"
      },
      "context": {
        "reference": "urn:uuid:acb73fd5-c9e9-47de-b01a-50e55b02bdc5"
      },
      "authored": "2021-04-06T11:29:26+00:00",
      "item": [ {
        "linkId": "Tx221793",
        "text": "STRING:to'Social&information'-further'Callreason'menu",
        "answer": [ {
          "valueString": "\"present\""
        } ]
      } ]
    }
  }, {
    "fullUrl": "urn:uuid:40344990-e70b-4651-989a-2b4d2ea46918",
    "resource": {
      "resourceType": "Questionnaire",
      "id": "40344990-e70b-4651-989a-2b4d2ea46918",
      "identifier": [ {
        "value": "59263"
      } ],
      "version": "2021-04-06T11:29:26.887Z",
      "status": "active",
      "experimental": false,
      "date": "2021-04-06T11:29:26+00:00",
      "publisher": "User ID: 'HADFIELDR' User name: 'Ryan Hadfield' User skill set: 'T3'",
      "lastReviewDate": "2021-04-06",
      "contact": [ {
        "telecom": [ {
          "system": "phone",
          "value": "07777 888888"
        } ]
      } ],
      "subjectType": [ "Patient" ],
      "item": [ {
        "linkId": "59263",
        "prefix": "600",
        "text": "STRING:to'Social&information'-further'Callreason'menu",
        "type": "choice",
        "required": true,
        "repeats": false,
        "option": [ {
          "valueString": "\"present\", Selected: true"
        } ]
      } ]
    }
  }, {
    "fullUrl": "urn:uuid:ca9e02af-840b-404b-b1f1-69e25d85155b",
    "resource": {
      "resourceType": "QuestionnaireResponse",
      "id": "ca9e02af-840b-404b-b1f1-69e25d85155b",
      "identifier": {
        "value": "59263"
      },
      "questionnaire": {
        "reference": "urn:uuid:3bc3dd7b-9ce9-41ef-952f-cd5dc70ce807"
      },
      "status": "completed",
      "subject": {
        "reference": "urn:uuid:1f1dee0d-ae77-46f1-8807-90b80d5cdb9e"
      },
      "context": {
        "reference": "urn:uuid:acb73fd5-c9e9-47de-b01a-50e55b02bdc5"
      },
      "authored": "2021-04-06T11:29:26+00:00"
    }
  }, {
    "fullUrl": "urn:uuid:3bc3dd7b-9ce9-41ef-952f-cd5dc70ce807",
    "resource": {
      "resourceType": "Questionnaire",
      "id": "3bc3dd7b-9ce9-41ef-952f-cd5dc70ce807",
      "identifier": [ {
        "value": "59263"
      } ],
      "version": "2021-04-06T11:29:26.887Z",
      "status": "active",
      "experimental": false,
      "date": "2021-04-06T11:29:26+00:00",
      "publisher": "User ID: 'HADFIELDR' User name: 'Ryan Hadfield' User skill set: 'T3'",
      "lastReviewDate": "2021-04-06",
      "contact": [ {
        "telecom": [ {
          "system": "phone",
          "value": "07777 888888"
        } ]
      } ],
      "subjectType": [ "Patient" ]
    }
  }, {
    "fullUrl": "urn:uuid:2d20c9e2-1033-4e96-bea0-f6ca71d47ac0",
    "resource": {
      "resourceType": "QuestionnaireResponse",
      "id": "2d20c9e2-1033-4e96-bea0-f6ca71d47ac0",
      "identifier": {
        "value": "59263"
      },
      "questionnaire": {
        "reference": "urn:uuid:124f4b36-4163-4510-8db2-77790d13c79e"
      },
      "status": "completed",
      "subject": {
        "reference": "urn:uuid:1f1dee0d-ae77-46f1-8807-90b80d5cdb9e"
      },
      "context": {
        "reference": "urn:uuid:acb73fd5-c9e9-47de-b01a-50e55b02bdc5"
      },
      "authored": "2021-04-06T11:29:26+00:00",
      "item": [ {
        "linkId": "Tx221804",
        "text": "STRING:transfertofurthermenuquestionestablishedinEntryFlow",
        "answer": [ {
          "valueString": "\"present\""
        } ]
      } ]
    }
  }, {
    "fullUrl": "urn:uuid:124f4b36-4163-4510-8db2-77790d13c79e",
    "resource": {
      "resourceType": "Questionnaire",
      "id": "124f4b36-4163-4510-8db2-77790d13c79e",
      "identifier": [ {
        "value": "59263"
      } ],
      "version": "2021-04-06T11:29:26.887Z",
      "status": "active",
      "experimental": false,
      "date": "2021-04-06T11:29:26+00:00",
      "publisher": "User ID: 'HADFIELDR' User name: 'Ryan Hadfield' User skill set: 'T3'",
      "lastReviewDate": "2021-04-06",
      "contact": [ {
        "telecom": [ {
          "system": "phone",
          "value": "07777 888888"
        } ]
      } ],
      "subjectType": [ "Patient" ],
      "item": [ {
        "linkId": "59263",
        "prefix": "41",
        "text": "STRING:transfertofurthermenuquestionestablishedinEntryFlow",
        "type": "choice",
        "required": true,
        "repeats": false,
        "option": [ {
          "valueString": "\"present\", Selected: true"
        } ]
      } ]
    }
  }, {
    "fullUrl": "urn:uuid:bad873e4-ed02-421c-87bd-5d4b5fb21f3f",
    "resource": {
      "resourceType": "QuestionnaireResponse",
      "id": "bad873e4-ed02-421c-87bd-5d4b5fb21f3f",
      "identifier": {
        "value": "59263"
      },
      "questionnaire": {
        "reference": "urn:uuid:8fc55693-b576-4dbd-ba22-f247bdfe0488"
      },
      "status": "completed",
      "subject": {
        "reference": "urn:uuid:1f1dee0d-ae77-46f1-8807-90b80d5cdb9e"
      },
      "context": {
        "reference": "urn:uuid:acb73fd5-c9e9-47de-b01a-50e55b02bdc5"
      },
      "authored": "2021-04-06T11:29:26+00:00",
      "item": [ {
        "linkId": "Tx224998",
        "text": "SYSTEM_COVIDLEVEL2",
        "answer": [ {
          "valueString": "==\"covidlevel2\""
        } ]
      } ]
    }
  }, {
    "fullUrl": "urn:uuid:8fc55693-b576-4dbd-ba22-f247bdfe0488",
    "resource": {
      "resourceType": "Questionnaire",
      "id": "8fc55693-b576-4dbd-ba22-f247bdfe0488",
      "identifier": [ {
        "value": "59263"
      } ],
      "version": "2021-04-06T11:29:26.887Z",
      "status": "active",
      "experimental": false,
      "date": "2021-04-06T11:29:26+00:00",
      "publisher": "User ID: 'HADFIELDR' User name: 'Ryan Hadfield' User skill set: 'T3'",
      "lastReviewDate": "2021-04-06",
      "contact": [ {
        "telecom": [ {
          "system": "phone",
          "value": "07777 888888"
        } ]
      } ],
      "subjectType": [ "Patient" ],
      "item": [ {
        "linkId": "59263",
        "prefix": "5900",
        "text": "SYSTEM_COVIDLEVEL2",
        "type": "choice",
        "required": true,
        "repeats": false,
        "option": [ {
          "valueString": "==\"covidlevel2\", Selected: true"
        }, {
          "valueString": "*, Selected: false"
        } ]
      } ]
    }
  }, {
    "fullUrl": "urn:uuid:5de7aac4-e36e-492f-aad0-2539df1a32ec",
    "resource": {
      "resourceType": "QuestionnaireResponse",
      "id": "5de7aac4-e36e-492f-aad0-2539df1a32ec",
      "identifier": {
        "value": "59263"
      },
      "questionnaire": {
        "reference": "urn:uuid:72b1f371-fa24-43c7-94b8-030825dc6aad"
      },
      "status": "completed",
      "subject": {
        "reference": "urn:uuid:1f1dee0d-ae77-46f1-8807-90b80d5cdb9e"
      },
      "context": {
        "reference": "urn:uuid:acb73fd5-c9e9-47de-b01a-50e55b02bdc5"
      },
      "authored": "2021-04-06T11:29:26+00:00",
      "item": [ {
        "linkId": "Tx225069",
        "text": "What is the reason for the contact?",
        "answer": [ {
          "valueString": "a prescription request"
        } ]
      } ]
    }
  }, {
    "fullUrl": "urn:uuid:72b1f371-fa24-43c7-94b8-030825dc6aad",
    "resource": {
      "resourceType": "Questionnaire",
      "id": "72b1f371-fa24-43c7-94b8-030825dc6aad",
      "identifier": [ {
        "value": "59263"
      } ],
      "version": "2021-04-06T11:29:26.887Z",
      "status": "active",
      "experimental": false,
      "date": "2021-04-06T11:29:26+00:00",
      "publisher": "User ID: 'HADFIELDR' User name: 'Ryan Hadfield' User skill set: 'T3'",
      "lastReviewDate": "2021-04-06",
      "contact": [ {
        "telecom": [ {
          "system": "phone",
          "value": "07777 888888"
        } ]
      } ],
      "subjectType": [ "Patient" ],
      "item": [ {
        "linkId": "59263",
        "prefix": "6000",
        "text": "What is the reason for the contact?",
        "type": "choice",
        "required": true,
        "repeats": false,
        "option": [ {
          "valueString": "a child protection/vulnerable adult concern (specify), Selected: false"
        }, {
          "valueString": "a social or domestic emergency, Selected: false"
        }, {
          "valueString": "a prescription request, Selected: true"
        }, {
          "valueString": "an appointment request, Selected: false"
        }, {
          "valueString": "a request for health or medication information, Selected: false"
        }, {
          "valueString": "public health alert information, Selected: false"
        } ]
      } ]
    }
  }, {
    "fullUrl": "urn:uuid:75479724-e2ca-4c76-982a-5aa553d1df56",
    "resource": {
      "resourceType": "QuestionnaireResponse",
      "id": "75479724-e2ca-4c76-982a-5aa553d1df56",
      "identifier": {
        "value": "59263"
      },
      "questionnaire": {
        "reference": "urn:uuid:a8f525a7-fee1-4400-9e4c-7f7257b15210"
      },
      "status": "completed",
      "subject": {
        "reference": "urn:uuid:1f1dee0d-ae77-46f1-8807-90b80d5cdb9e"
      },
      "context": {
        "reference": "urn:uuid:acb73fd5-c9e9-47de-b01a-50e55b02bdc5"
      },
      "authored": "2021-04-06T11:29:26+00:00",
      "item": [ {
        "linkId": "Tx220957",
        "text": "Is this contact about a new or worsening illness?",
        "answer": [ {
          "valueString": "no"
        } ]
      } ]
    }
  }, {
    "fullUrl": "urn:uuid:a8f525a7-fee1-4400-9e4c-7f7257b15210",
    "resource": {
      "resourceType": "Questionnaire",
      "id": "a8f525a7-fee1-4400-9e4c-7f7257b15210",
      "identifier": [ {
        "value": "59263"
      } ],
      "version": "2021-04-06T11:29:26.887Z",
      "status": "active",
      "experimental": false,
      "date": "2021-04-06T11:29:26+00:00",
      "publisher": "User ID: 'HADFIELDR' User name: 'Ryan Hadfield' User skill set: 'T3'",
      "lastReviewDate": "2021-04-06",
      "contact": [ {
        "telecom": [ {
          "system": "phone",
          "value": "07777 888888"
        } ]
      } ],
      "subjectType": [ "Patient" ],
      "item": [ {
        "linkId": "59263",
        "prefix": "1400",
        "text": "Is this contact about a new or worsening illness?",
        "type": "choice",
        "required": true,
        "repeats": false,
        "option": [ {
          "valueString": "yes, Selected: false"
        }, {
          "valueString": "not sure, Selected: false"
        }, {
          "valueString": "no, Selected: true"
        } ]
      } ]
    }
  }, {
    "fullUrl": "urn:uuid:57fa0498-5a4a-4ba7-9588-e296879dbbb1",
    "resource": {
      "resourceType": "QuestionnaireResponse",
      "id": "57fa0498-5a4a-4ba7-9588-e296879dbbb1",
      "identifier": {
        "value": "59263"
      },
      "questionnaire": {
        "reference": "urn:uuid:59a17dc9-ceb8-4adb-8bd5-ebcb777b3c8a"
      },
      "status": "completed",
      "subject": {
        "reference": "urn:uuid:1f1dee0d-ae77-46f1-8807-90b80d5cdb9e"
      },
      "context": {
        "reference": "urn:uuid:acb73fd5-c9e9-47de-b01a-50e55b02bdc5"
      },
      "authored": "2021-04-06T11:29:26+00:00",
      "item": [ {
        "linkId": "Tx221352",
        "text": "Have you got enough medication to last until the surgery opens?",
        "answer": [ {
          "valueString": "no"
        } ]
      } ]
    }
  }, {
    "fullUrl": "urn:uuid:59a17dc9-ceb8-4adb-8bd5-ebcb777b3c8a",
    "resource": {
      "resourceType": "Questionnaire",
      "id": "59a17dc9-ceb8-4adb-8bd5-ebcb777b3c8a",
      "identifier": [ {
        "value": "59263"
      } ],
      "version": "2021-04-06T11:29:26.887Z",
      "status": "active",
      "experimental": false,
      "date": "2021-04-06T11:29:26+00:00",
      "publisher": "User ID: 'HADFIELDR' User name: 'Ryan Hadfield' User skill set: 'T3'",
      "lastReviewDate": "2021-04-06",
      "contact": [ {
        "telecom": [ {
          "system": "phone",
          "value": "07777 888888"
        } ]
      } ],
      "subjectType": [ "Patient" ],
      "item": [ {
        "linkId": "59263",
        "prefix": "1500",
        "text": "Have you got enough medication to last until the surgery opens?",
        "type": "choice",
        "required": true,
        "repeats": false,
        "option": [ {
          "valueString": "yes, Selected: false"
        }, {
          "valueString": "not sure, Selected: false"
        }, {
          "valueString": "no, Selected: true"
        } ]
      } ]
    }
  }, {
    "fullUrl": "urn:uuid:8e750365-41a3-4017-ab89-a9e768b60614",
    "resource": {
      "resourceType": "QuestionnaireResponse",
      "id": "8e750365-41a3-4017-ab89-a9e768b60614",
      "identifier": {
        "value": "59263"
      },
      "questionnaire": {
        "reference": "urn:uuid:b7a28613-7c85-404b-bf7f-6e1fd791192f"
      },
      "status": "completed",
      "subject": {
        "reference": "urn:uuid:1f1dee0d-ae77-46f1-8807-90b80d5cdb9e"
      },
      "context": {
        "reference": "urn:uuid:acb73fd5-c9e9-47de-b01a-50e55b02bdc5"
      },
      "authored": "2021-04-06T11:29:26+00:00"
    }
  }, {
    "fullUrl": "urn:uuid:b7a28613-7c85-404b-bf7f-6e1fd791192f",
    "resource": {
      "resourceType": "Questionnaire",
      "id": "b7a28613-7c85-404b-bf7f-6e1fd791192f",
      "identifier": [ {
        "value": "59263"
      } ],
      "version": "2021-04-06T11:29:26.887Z",
      "status": "active",
      "experimental": false,
      "date": "2021-04-06T11:29:26+00:00",
      "publisher": "User ID: 'HADFIELDR' User name: 'Ryan Hadfield' User skill set: 'T3'",
      "lastReviewDate": "2021-04-06",
      "contact": [ {
        "telecom": [ {
          "system": "phone",
          "value": "07777 888888"
        } ]
      } ],
      "subjectType": [ "Patient" ]
    }
  }, {
    "fullUrl": "urn:uuid:45875114-6c11-4cd6-8e5a-ddeeddcc5b85",
    "resource": {
      "resourceType": "QuestionnaireResponse",
      "id": "45875114-6c11-4cd6-8e5a-ddeeddcc5b85",
      "identifier": {
        "value": "59263"
      },
      "questionnaire": {
        "reference": "urn:uuid:d088c283-b8f5-4bf0-bd09-8f17d406a8e8"
      },
      "status": "completed",
      "subject": {
        "reference": "urn:uuid:1f1dee0d-ae77-46f1-8807-90b80d5cdb9e"
      },
      "context": {
        "reference": "urn:uuid:acb73fd5-c9e9-47de-b01a-50e55b02bdc5"
      },
      "authored": "2021-04-06T11:29:26+00:00",
      "item": [ {
        "linkId": "Tx224231",
        "text": "FROM WHAT YOU HAVE HEARD IS A CONSULTATION WITH A PRESCRIBER NEEDED?",
        "answer": [ {
          "valueString": "yes"
        } ]
      } ]
    }
  }, {
    "fullUrl": "urn:uuid:d088c283-b8f5-4bf0-bd09-8f17d406a8e8",
    "resource": {
      "resourceType": "Questionnaire",
      "id": "d088c283-b8f5-4bf0-bd09-8f17d406a8e8",
      "identifier": [ {
        "value": "59263"
      } ],
      "version": "2021-04-06T11:29:26.887Z",
      "status": "active",
      "experimental": false,
      "date": "2021-04-06T11:29:26+00:00",
      "publisher": "User ID: 'HADFIELDR' User name: 'Ryan Hadfield' User skill set: 'T3'",
      "lastReviewDate": "2021-04-06",
      "contact": [ {
        "telecom": [ {
          "system": "phone",
          "value": "07777 888888"
        } ]
      } ],
      "subjectType": [ "Patient" ],
      "item": [ {
        "linkId": "59263",
        "prefix": "0",
        "text": "FROM WHAT YOU HAVE HEARD IS A CONSULTATION WITH A PRESCRIBER NEEDED?",
        "type": "choice",
        "required": true,
        "repeats": false,
        "option": [ {
          "valueString": "yes, Selected: true"
        }, {
          "valueString": "not sure, Selected: false"
        }, {
          "valueString": "no, Selected: false"
        } ]
      } ]
    }
  }, {
    "fullUrl": "urn:uuid:a3005767-9581-4c6f-a1d9-0a35ce510dbe",
    "resource": {
      "resourceType": "QuestionnaireResponse",
      "id": "a3005767-9581-4c6f-a1d9-0a35ce510dbe",
      "identifier": {
        "value": "59263"
      },
      "questionnaire": {
        "reference": "urn:uuid:071a7387-0869-47ab-8686-f470f622cfcb"
      },
      "status": "completed",
      "subject": {
        "reference": "urn:uuid:1f1dee0d-ae77-46f1-8807-90b80d5cdb9e"
      },
      "context": {
        "reference": "urn:uuid:acb73fd5-c9e9-47de-b01a-50e55b02bdc5"
      },
      "authored": "2021-04-06T11:29:26+00:00",
      "item": [ {
        "linkId": "Tx221367",
        "text": "When is the next dose due?",
        "answer": [ {
          "valueString": "within the next 12 hours"
        } ]
      } ]
    }
  }, {
    "fullUrl": "urn:uuid:071a7387-0869-47ab-8686-f470f622cfcb",
    "resource": {
      "resourceType": "Questionnaire",
      "id": "071a7387-0869-47ab-8686-f470f622cfcb",
      "identifier": [ {
        "value": "59263"
      } ],
      "version": "2021-04-06T11:29:26.887Z",
      "status": "active",
      "experimental": false,
      "date": "2021-04-06T11:29:26+00:00",
      "publisher": "User ID: 'HADFIELDR' User name: 'Ryan Hadfield' User skill set: 'T3'",
      "lastReviewDate": "2021-04-06",
      "contact": [ {
        "telecom": [ {
          "system": "phone",
          "value": "07777 888888"
        } ]
      } ],
      "subjectType": [ "Patient" ],
      "item": [ {
        "linkId": "59263",
        "prefix": "2900",
        "text": "When is the next dose due?",
        "type": "choice",
        "required": true,
        "repeats": false,
        "option": [ {
          "valueString": "within the next 2 hours, Selected: false"
        }, {
          "valueString": "within the next 6 hours, Selected: false"
        }, {
          "valueString": "within the next 12 hours, Selected: true"
        }, {
          "valueString": "over 12 hours time, Selected: false"
        }, {
          "valueString": "not sure, Selected: false"
        } ]
      } ]
    }
  }, {
    "fullUrl": "urn:uuid:5e239bf7-5a4a-41f7-9dcc-381304e391a5",
    "resource": {
      "resourceType": "QuestionnaireResponse",
      "id": "5e239bf7-5a4a-41f7-9dcc-381304e391a5",
      "identifier": {
        "value": "59263"
      },
      "questionnaire": {
        "reference": "urn:uuid:c85af349-91a2-41b5-b615-16cd45889d5d"
      },
      "status": "completed",
      "subject": {
        "reference": "urn:uuid:1f1dee0d-ae77-46f1-8807-90b80d5cdb9e"
      },
      "context": {
        "reference": "urn:uuid:acb73fd5-c9e9-47de-b01a-50e55b02bdc5"
      },
      "authored": "2021-04-06T11:29:26+00:00",
      "item": [ {
        "linkId": "Tx221449",
        "text": "STRING:SDPCFullPrimaryCareassessmentandprescribingcapability",
        "answer": [ {
          "valueString": "\"PC full Primary Care assessment and prescribing capability\""
        } ]
      } ]
    }
  }, {
    "fullUrl": "urn:uuid:c85af349-91a2-41b5-b615-16cd45889d5d",
    "resource": {
      "resourceType": "Questionnaire",
      "id": "c85af349-91a2-41b5-b615-16cd45889d5d",
      "identifier": [ {
        "value": "59263"
      } ],
      "version": "2021-04-06T11:29:26.887Z",
      "status": "active",
      "experimental": false,
      "date": "2021-04-06T11:29:26+00:00",
      "publisher": "User ID: 'HADFIELDR' User name: 'Ryan Hadfield' User skill set: 'T3'",
      "lastReviewDate": "2021-04-06",
      "contact": [ {
        "telecom": [ {
          "system": "phone",
          "value": "07777 888888"
        } ]
      } ],
      "subjectType": [ "Patient" ],
      "item": [ {
        "linkId": "59263",
        "prefix": "3000",
        "text": "STRING:SDPCFullPrimaryCareassessmentandprescribingcapability",
        "type": "choice",
        "required": true,
        "repeats": false,
        "option": [ {
          "valueString": "\"PC full Primary Care assessment and prescribing capability\", Selected: true"
        } ]
      } ]
    }
  }, {
    "fullUrl": "urn:uuid:bc95be51-872e-469f-9e49-fb62da95049f",
    "resource": {
      "resourceType": "QuestionnaireResponse",
      "id": "bc95be51-872e-469f-9e49-fb62da95049f",
      "identifier": {
        "value": "59263"
      },
      "questionnaire": {
        "reference": "urn:uuid:86503486-4cef-410a-8716-380e1abe9a35"
      },
      "status": "completed",
      "subject": {
        "reference": "urn:uuid:1f1dee0d-ae77-46f1-8807-90b80d5cdb9e"
      },
      "context": {
        "reference": "urn:uuid:acb73fd5-c9e9-47de-b01a-50e55b02bdc5"
      },
      "authored": "2021-04-06T11:29:26+00:00"
    }
  }, {
    "fullUrl": "urn:uuid:86503486-4cef-410a-8716-380e1abe9a35",
    "resource": {
      "resourceType": "Questionnaire",
      "id": "86503486-4cef-410a-8716-380e1abe9a35",
      "identifier": [ {
        "value": "59263"
      } ],
      "version": "2021-04-06T11:29:26.887Z",
      "status": "active",
      "experimental": false,
      "date": "2021-04-06T11:29:26+00:00",
      "publisher": "User ID: 'HADFIELDR' User name: 'Ryan Hadfield' User skill set: 'T3'",
      "lastReviewDate": "2021-04-06",
      "contact": [ {
        "telecom": [ {
          "system": "phone",
          "value": "07777 888888"
        } ]
      } ],
      "subjectType": [ "Patient" ]
    }
  }, {
    "fullUrl": "urn:uuid:e2983c2c-a751-4a20-9f2e-3459b07a5cdb",
    "resource": {
      "resourceType": "QuestionnaireResponse",
      "id": "e2983c2c-a751-4a20-9f2e-3459b07a5cdb",
      "identifier": {
        "value": "59263"
      },
      "questionnaire": {
        "reference": "urn:uuid:972348ba-d0f7-4cd1-bbe2-a4336c2d4f30"
      },
      "status": "completed",
      "subject": {
        "reference": "urn:uuid:1f1dee0d-ae77-46f1-8807-90b80d5cdb9e"
      },
      "context": {
        "reference": "urn:uuid:acb73fd5-c9e9-47de-b01a-50e55b02bdc5"
      },
      "authored": "2021-04-06T11:29:26+00:00",
      "item": [ {
        "linkId": "Tx220074",
        "text": "What is the reason for the contact?",
        "answer": [ {
          "valueString": "an injury or other health problem"
        } ]
      } ]
    }
  }, {
    "fullUrl": "urn:uuid:972348ba-d0f7-4cd1-bbe2-a4336c2d4f30",
    "resource": {
      "resourceType": "Questionnaire",
      "id": "972348ba-d0f7-4cd1-bbe2-a4336c2d4f30",
      "identifier": [ {
        "value": "59263"
      } ],
      "version": "2021-04-06T11:29:26.887Z",
      "status": "active",
      "experimental": false,
      "date": "2021-04-06T11:29:26+00:00",
      "publisher": "User ID: 'HADFIELDR' User name: 'Ryan Hadfield' User skill set: 'T3'",
      "lastReviewDate": "2021-04-06",
      "contact": [ {
        "telecom": [ {
          "system": "phone",
          "value": "07777 888888"
        } ]
      } ],
      "subjectType": [ "Patient" ],
      "item": [ {
        "linkId": "59263",
        "prefix": "5",
        "text": "What is the reason for the contact?",
        "type": "choice",
        "required": true,
        "repeats": false,
        "option": [ {
          "valueString": "an injury or other health problem, Selected: true"
        }, {
          "valueString": "labour or childbirth, Selected: false"
        }, {
          "valueString": "a need to access another healthcare service, Selected: false"
        }, {
          "valueString": "a healthcare professional requesting contact with another clinician, Selected: false"
        }, {
          "valueString": "a report of results or tests, Selected: false"
        }, {
          "valueString": "a possible failure of contraception, Selected: false"
        }, {
          "valueString": "more, Selected: false"
        } ]
      } ]
    }
  }, {
    "fullUrl": "urn:uuid:c014c32d-8bf3-4149-b66c-3c4ea2a0853b",
    "resource": {
      "resourceType": "QuestionnaireResponse",
      "id": "c014c32d-8bf3-4149-b66c-3c4ea2a0853b",
      "identifier": {
        "value": "59263"
      },
      "questionnaire": {
        "reference": "urn:uuid:9f56ade5-e7d9-4aae-aedf-4819f5c36491"
      },
      "status": "completed",
      "subject": {
        "reference": "urn:uuid:1f1dee0d-ae77-46f1-8807-90b80d5cdb9e"
      },
      "context": {
        "reference": "urn:uuid:acb73fd5-c9e9-47de-b01a-50e55b02bdc5"
      },
      "authored": "2021-04-06T11:29:26+00:00",
      "item": [ {
        "linkId": "Tx221807",
        "text": "STRING:to'Immediatethreatstolife(SPA/OOHversion)'-'Majorbloodloss'stem",
        "answer": [ {
          "valueString": "\"present\""
        } ]
      } ]
    }
  }, {
    "fullUrl": "urn:uuid:9f56ade5-e7d9-4aae-aedf-4819f5c36491",
    "resource": {
      "resourceType": "Questionnaire",
      "id": "9f56ade5-e7d9-4aae-aedf-4819f5c36491",
      "identifier": [ {
        "value": "59263"
      } ],
      "version": "2021-04-06T11:29:26.887Z",
      "status": "active",
      "experimental": false,
      "date": "2021-04-06T11:29:26+00:00",
      "publisher": "User ID: 'HADFIELDR' User name: 'Ryan Hadfield' User skill set: 'T3'",
      "lastReviewDate": "2021-04-06",
      "contact": [ {
        "telecom": [ {
          "system": "phone",
          "value": "07777 888888"
        } ]
      } ],
      "subjectType": [ "Patient" ],
      "item": [ {
        "linkId": "59263",
        "prefix": "200",
        "text": "STRING:to'Immediatethreatstolife(SPA/OOHversion)'-'Majorbloodloss'stem",
        "type": "choice",
        "required": true,
        "repeats": false,
        "option": [ {
          "valueString": "\"present\", Selected: true"
        } ]
      } ]
    }
  }, {
    "fullUrl": "urn:uuid:922b7a9b-351c-42ed-8d77-29cd1124a698",
    "resource": {
      "resourceType": "QuestionnaireResponse",
      "id": "922b7a9b-351c-42ed-8d77-29cd1124a698",
      "identifier": {
        "value": "59263"
      },
      "questionnaire": {
        "reference": "urn:uuid:39921a0a-f5c7-4382-81c2-aa7e63be5063"
      },
      "status": "completed",
      "subject": {
        "reference": "urn:uuid:1f1dee0d-ae77-46f1-8807-90b80d5cdb9e"
      },
      "context": {
        "reference": "urn:uuid:acb73fd5-c9e9-47de-b01a-50e55b02bdc5"
      },
      "authored": "2021-04-06T11:29:26+00:00"
    }
  }, {
    "fullUrl": "urn:uuid:39921a0a-f5c7-4382-81c2-aa7e63be5063",
    "resource": {
      "resourceType": "Questionnaire",
      "id": "39921a0a-f5c7-4382-81c2-aa7e63be5063",
      "identifier": [ {
        "value": "59263"
      } ],
      "version": "2021-04-06T11:29:26.887Z",
      "status": "active",
      "experimental": false,
      "date": "2021-04-06T11:29:26+00:00",
      "publisher": "User ID: 'HADFIELDR' User name: 'Ryan Hadfield' User skill set: 'T3'",
      "lastReviewDate": "2021-04-06",
      "contact": [ {
        "telecom": [ {
          "system": "phone",
          "value": "07777 888888"
        } ]
      } ],
      "subjectType": [ "Patient" ]
    }
  }, {
    "fullUrl": "urn:uuid:98beb51c-f2fe-4e7a-bdab-7d50085e0e6d",
    "resource": {
      "resourceType": "QuestionnaireResponse",
      "id": "98beb51c-f2fe-4e7a-bdab-7d50085e0e6d",
      "identifier": {
        "value": "59263"
      },
      "questionnaire": {
        "reference": "urn:uuid:543f0213-64ee-4ac4-bc42-25f453861624"
      },
      "status": "completed",
      "subject": {
        "reference": "urn:uuid:1f1dee0d-ae77-46f1-8807-90b80d5cdb9e"
      },
      "context": {
        "reference": "urn:uuid:acb73fd5-c9e9-47de-b01a-50e55b02bdc5"
      },
      "authored": "2021-04-06T11:29:26+00:00",
      "item": [ {
        "linkId": "Tx221799",
        "text": "STRING:injury,illnessorlabourestablishedinEntryFlow",
        "answer": [ {
          "valueString": "\"present\""
        } ]
      } ]
    }
  }, {
    "fullUrl": "urn:uuid:543f0213-64ee-4ac4-bc42-25f453861624",
    "resource": {
      "resourceType": "Questionnaire",
      "id": "543f0213-64ee-4ac4-bc42-25f453861624",
      "identifier": [ {
        "value": "59263"
      } ],
      "version": "2021-04-06T11:29:26.887Z",
      "status": "active",
      "experimental": false,
      "date": "2021-04-06T11:29:26+00:00",
      "publisher": "User ID: 'HADFIELDR' User name: 'Ryan Hadfield' User skill set: 'T3'",
      "lastReviewDate": "2021-04-06",
      "contact": [ {
        "telecom": [ {
          "system": "phone",
          "value": "07777 888888"
        } ]
      } ],
      "subjectType": [ "Patient" ],
      "item": [ {
        "linkId": "59263",
        "prefix": "0",
        "text": "STRING:injury,illnessorlabourestablishedinEntryFlow",
        "type": "choice",
        "required": true,
        "repeats": false,
        "option": [ {
          "valueString": "\"present\", Selected: true"
        } ]
      } ]
    }
  }, {
    "fullUrl": "urn:uuid:d1c787c3-6f63-4719-b95d-3d173ac5045c",
    "resource": {
      "resourceType": "QuestionnaireResponse",
      "id": "d1c787c3-6f63-4719-b95d-3d173ac5045c",
      "identifier": {
        "value": "59263"
      },
      "questionnaire": {
        "reference": "urn:uuid:7e16131a-b805-4442-ade7-92ef3236ca65"
      },
      "status": "completed",
      "subject": {
        "reference": "urn:uuid:1f1dee0d-ae77-46f1-8807-90b80d5cdb9e"
      },
      "context": {
        "reference": "urn:uuid:acb73fd5-c9e9-47de-b01a-50e55b02bdc5"
      },
      "authored": "2021-04-06T11:29:26+00:00",
      "item": [ {
        "linkId": "Tx224120",
        "text": "Have you been bleeding RED BLOOD very heavily IN THE LAST 2 HOURS?",
        "answer": [ {
          "valueString": "no"
        } ]
      } ]
    }
  }, {
    "fullUrl": "urn:uuid:7e16131a-b805-4442-ade7-92ef3236ca65",
    "resource": {
      "resourceType": "Questionnaire",
      "id": "7e16131a-b805-4442-ade7-92ef3236ca65",
      "identifier": [ {
        "value": "59263"
      } ],
      "version": "2021-04-06T11:29:26.887Z",
      "status": "active",
      "experimental": false,
      "date": "2021-04-06T11:29:26+00:00",
      "publisher": "User ID: 'HADFIELDR' User name: 'Ryan Hadfield' User skill set: 'T3'",
      "lastReviewDate": "2021-04-06",
      "contact": [ {
        "telecom": [ {
          "system": "phone",
          "value": "07777 888888"
        } ]
      } ],
      "subjectType": [ "Patient" ],
      "item": [ {
        "linkId": "59263",
        "prefix": "10100",
        "text": "Have you been bleeding RED BLOOD very heavily IN THE LAST 2 HOURS?",
        "type": "choice",
        "required": true,
        "repeats": false,
        "option": [ {
          "valueString": "yes, Selected: false"
        }, {
          "valueString": "not sure, Selected: false"
        }, {
          "valueString": "no, Selected: true"
        } ]
      } ]
    }
  }, {
    "fullUrl": "urn:uuid:7ae6b8a1-0a28-44f1-a506-7262eb757b0b",
    "resource": {
      "resourceType": "QuestionnaireResponse",
      "id": "7ae6b8a1-0a28-44f1-a506-7262eb757b0b",
      "identifier": {
        "value": "59263"
      },
      "questionnaire": {
        "reference": "urn:uuid:908a186a-6f23-4f83-b34e-c03fe0dd1255"
      },
      "status": "completed",
      "subject": {
        "reference": "urn:uuid:1f1dee0d-ae77-46f1-8807-90b80d5cdb9e"
      },
      "context": {
        "reference": "urn:uuid:acb73fd5-c9e9-47de-b01a-50e55b02bdc5"
      },
      "authored": "2021-04-06T11:29:26+00:00",
      "item": [ {
        "linkId": "Tx221343",
        "text": "SocialConcernsExcluded",
        "answer": [ {
          "valueString": "*"
        } ]
      } ]
    }
  }, {
    "fullUrl": "urn:uuid:908a186a-6f23-4f83-b34e-c03fe0dd1255",
    "resource": {
      "resourceType": "Questionnaire",
      "id": "908a186a-6f23-4f83-b34e-c03fe0dd1255",
      "identifier": [ {
        "value": "59263"
      } ],
      "version": "2021-04-06T11:29:26.887Z",
      "status": "active",
      "experimental": false,
      "date": "2021-04-06T11:29:26+00:00",
      "publisher": "User ID: 'HADFIELDR' User name: 'Ryan Hadfield' User skill set: 'T3'",
      "lastReviewDate": "2021-04-06",
      "contact": [ {
        "telecom": [ {
          "system": "phone",
          "value": "07777 888888"
        } ]
      } ],
      "subjectType": [ "Patient" ],
      "item": [ {
        "linkId": "59263",
        "prefix": "1100",
        "text": "SocialConcernsExcluded",
        "type": "choice",
        "required": true,
        "repeats": false,
        "option": [ {
          "valueString": "==\"present\", Selected: false"
        }, {
          "valueString": "*, Selected: true"
        } ]
      } ]
    }
  }, {
    "fullUrl": "urn:uuid:531ca78a-0586-413a-aa04-6d21d8f0f280",
    "resource": {
      "resourceType": "QuestionnaireResponse",
      "id": "531ca78a-0586-413a-aa04-6d21d8f0f280",
      "identifier": {
        "value": "59263"
      },
      "questionnaire": {
        "reference": "urn:uuid:21238952-52f4-4914-959c-4a49ddb5c60d"
      },
      "status": "completed",
      "subject": {
        "reference": "urn:uuid:1f1dee0d-ae77-46f1-8807-90b80d5cdb9e"
      },
      "context": {
        "reference": "urn:uuid:acb73fd5-c9e9-47de-b01a-50e55b02bdc5"
      },
      "authored": "2021-04-06T11:29:26+00:00",
      "item": [ {
        "linkId": "Tx130011",
        "text": "What is the main problem?"
      } ]
    }
  }, {
    "fullUrl": "urn:uuid:21238952-52f4-4914-959c-4a49ddb5c60d",
    "resource": {
      "resourceType": "Questionnaire",
      "id": "21238952-52f4-4914-959c-4a49ddb5c60d",
      "identifier": [ {
        "value": "59263"
      } ],
      "version": "2021-04-06T11:29:26.887Z",
      "status": "active",
      "experimental": false,
      "date": "2021-04-06T11:29:26+00:00",
      "publisher": "User ID: 'HADFIELDR' User name: 'Ryan Hadfield' User skill set: 'T3'",
      "lastReviewDate": "2021-04-06",
      "contact": [ {
        "telecom": [ {
          "system": "phone",
          "value": "07777 888888"
        } ]
      } ],
      "subjectType": [ "Patient" ],
      "item": [ {
        "linkId": "59263",
        "prefix": "2300",
        "text": "What is the main problem?",
        "type": "choice",
        "required": true,
        "repeats": false,
        "option": [ {
          "valueString": "the individual has been told to follow a particular course of action (specify), Selected: false"
        }, {
          "valueString": "the individual is an identified frequent caller, Selected: false"
        }, {
          "valueString": "injury (specify), Selected: false"
        }, {
          "valueString": "illness or other health problem (specify), Selected: false"
        }, {
          "valueString": "child protection/vulnerable adult concern, Selected: false"
        }, {
          "valueString": "social or domestic emergency, Selected: false"
        }, {
          "valueString": "the environment potentially poses an immediate threat to life (specify), Selected: false"
        } ]
      } ]
    }
  }, {
    "fullUrl": "urn:uuid:c71abc80-edce-4694-8990-fcc1860bf35d",
    "resource": {
      "resourceType": "QuestionnaireResponse",
      "id": "c71abc80-edce-4694-8990-fcc1860bf35d",
      "identifier": {
        "value": "59263"
      },
      "questionnaire": {
        "reference": "urn:uuid:3075557a-d496-4ebe-b7eb-315363e3ccbf"
      },
      "status": "completed",
      "subject": {
        "reference": "urn:uuid:1f1dee0d-ae77-46f1-8807-90b80d5cdb9e"
      },
      "context": {
        "reference": "urn:uuid:acb73fd5-c9e9-47de-b01a-50e55b02bdc5"
      },
      "authored": "2021-04-06T11:29:26+00:00",
      "item": [ {
        "linkId": "Tx220074",
        "text": "What is the reason for the contact?",
        "answer": [ {
          "valueString": "more"
        } ]
      } ]
    }
  }, {
    "fullUrl": "urn:uuid:3075557a-d496-4ebe-b7eb-315363e3ccbf",
    "resource": {
      "resourceType": "Questionnaire",
      "id": "3075557a-d496-4ebe-b7eb-315363e3ccbf",
      "identifier": [ {
        "value": "59263"
      } ],
      "version": "2021-04-06T11:29:26.887Z",
      "status": "active",
      "experimental": false,
      "date": "2021-04-06T11:29:26+00:00",
      "publisher": "User ID: 'HADFIELDR' User name: 'Ryan Hadfield' User skill set: 'T3'",
      "lastReviewDate": "2021-04-06",
      "contact": [ {
        "telecom": [ {
          "system": "phone",
          "value": "07777 888888"
        } ]
      } ],
      "subjectType": [ "Patient" ],
      "item": [ {
        "linkId": "59263",
        "prefix": "5",
        "text": "What is the reason for the contact?",
        "type": "choice",
        "required": true,
        "repeats": false,
        "option": [ {
          "valueString": "an injury or other health problem, Selected: false"
        }, {
          "valueString": "labour or childbirth, Selected: false"
        }, {
          "valueString": "a need to access another healthcare service, Selected: false"
        }, {
          "valueString": "a healthcare professional requesting contact with another clinician, Selected: false"
        }, {
          "valueString": "a report of results or tests, Selected: false"
        }, {
          "valueString": "a possible failure of contraception, Selected: false"
        }, {
          "valueString": "more, Selected: true"
        } ]
      } ]
    }
  }, {
    "fullUrl": "urn:uuid:ae4ec30a-07bf-489e-9d38-27e86c034750",
    "resource": {
      "resourceType": "QuestionnaireResponse",
      "id": "ae4ec30a-07bf-489e-9d38-27e86c034750",
      "identifier": {
        "value": "59263"
      },
      "questionnaire": {
        "reference": "urn:uuid:acee0370-d92e-40c9-9df3-aecbe896fdd8"
      },
      "status": "completed",
      "subject": {
        "reference": "urn:uuid:1f1dee0d-ae77-46f1-8807-90b80d5cdb9e"
      },
      "context": {
        "reference": "urn:uuid:acb73fd5-c9e9-47de-b01a-50e55b02bdc5"
      },
      "authored": "2021-04-06T11:29:26+00:00",
      "item": [ {
        "linkId": "Tx221793",
        "text": "STRING:to'Social&information'-further'Callreason'menu",
        "answer": [ {
          "valueString": "\"present\""
        } ]
      } ]
    }
  }, {
    "fullUrl": "urn:uuid:acee0370-d92e-40c9-9df3-aecbe896fdd8",
    "resource": {
      "resourceType": "Questionnaire",
      "id": "acee0370-d92e-40c9-9df3-aecbe896fdd8",
      "identifier": [ {
        "value": "59263"
      } ],
      "version": "2021-04-06T11:29:26.887Z",
      "status": "active",
      "experimental": false,
      "date": "2021-04-06T11:29:26+00:00",
      "publisher": "User ID: 'HADFIELDR' User name: 'Ryan Hadfield' User skill set: 'T3'",
      "lastReviewDate": "2021-04-06",
      "contact": [ {
        "telecom": [ {
          "system": "phone",
          "value": "07777 888888"
        } ]
      } ],
      "subjectType": [ "Patient" ],
      "item": [ {
        "linkId": "59263",
        "prefix": "600",
        "text": "STRING:to'Social&information'-further'Callreason'menu",
        "type": "choice",
        "required": true,
        "repeats": false,
        "option": [ {
          "valueString": "\"present\", Selected: true"
        } ]
      } ]
    }
  }, {
    "fullUrl": "urn:uuid:9d8562a6-524f-431b-b66a-1e9b9f496629",
    "resource": {
      "resourceType": "QuestionnaireResponse",
      "id": "9d8562a6-524f-431b-b66a-1e9b9f496629",
      "identifier": {
        "value": "59263"
      },
      "questionnaire": {
        "reference": "urn:uuid:6b445fda-461b-42f8-ac32-54d8f2c9ffad"
      },
      "status": "completed",
      "subject": {
        "reference": "urn:uuid:1f1dee0d-ae77-46f1-8807-90b80d5cdb9e"
      },
      "context": {
        "reference": "urn:uuid:acb73fd5-c9e9-47de-b01a-50e55b02bdc5"
      },
      "authored": "2021-04-06T11:29:26+00:00"
    }
  }, {
    "fullUrl": "urn:uuid:6b445fda-461b-42f8-ac32-54d8f2c9ffad",
    "resource": {
      "resourceType": "Questionnaire",
      "id": "6b445fda-461b-42f8-ac32-54d8f2c9ffad",
      "identifier": [ {
        "value": "59263"
      } ],
      "version": "2021-04-06T11:29:26.887Z",
      "status": "active",
      "experimental": false,
      "date": "2021-04-06T11:29:26+00:00",
      "publisher": "User ID: 'HADFIELDR' User name: 'Ryan Hadfield' User skill set: 'T3'",
      "lastReviewDate": "2021-04-06",
      "contact": [ {
        "telecom": [ {
          "system": "phone",
          "value": "07777 888888"
        } ]
      } ],
      "subjectType": [ "Patient" ]
    }
  }, {
    "fullUrl": "urn:uuid:45d5d771-2d0d-42cf-9ec3-68063b904b55",
    "resource": {
      "resourceType": "QuestionnaireResponse",
      "id": "45d5d771-2d0d-42cf-9ec3-68063b904b55",
      "identifier": {
        "value": "59263"
      },
      "questionnaire": {
        "reference": "urn:uuid:d5b8113a-c30a-4fbe-8945-fc5b003f1e51"
      },
      "status": "completed",
      "subject": {
        "reference": "urn:uuid:1f1dee0d-ae77-46f1-8807-90b80d5cdb9e"
      },
      "context": {
        "reference": "urn:uuid:acb73fd5-c9e9-47de-b01a-50e55b02bdc5"
      },
      "authored": "2021-04-06T11:29:26+00:00",
      "item": [ {
        "linkId": "Tx221804",
        "text": "STRING:transfertofurthermenuquestionestablishedinEntryFlow",
        "answer": [ {
          "valueString": "\"present\""
        } ]
      } ]
    }
  }, {
    "fullUrl": "urn:uuid:d5b8113a-c30a-4fbe-8945-fc5b003f1e51",
    "resource": {
      "resourceType": "Questionnaire",
      "id": "d5b8113a-c30a-4fbe-8945-fc5b003f1e51",
      "identifier": [ {
        "value": "59263"
      } ],
      "version": "2021-04-06T11:29:26.887Z",
      "status": "active",
      "experimental": false,
      "date": "2021-04-06T11:29:26+00:00",
      "publisher": "User ID: 'HADFIELDR' User name: 'Ryan Hadfield' User skill set: 'T3'",
      "lastReviewDate": "2021-04-06",
      "contact": [ {
        "telecom": [ {
          "system": "phone",
          "value": "07777 888888"
        } ]
      } ],
      "subjectType": [ "Patient" ],
      "item": [ {
        "linkId": "59263",
        "prefix": "41",
        "text": "STRING:transfertofurthermenuquestionestablishedinEntryFlow",
        "type": "choice",
        "required": true,
        "repeats": false,
        "option": [ {
          "valueString": "\"present\", Selected: true"
        } ]
      } ]
    }
  }, {
    "fullUrl": "urn:uuid:4d06e318-b7cf-4633-8875-0e02e3e5101f",
    "resource": {
      "resourceType": "QuestionnaireResponse",
      "id": "4d06e318-b7cf-4633-8875-0e02e3e5101f",
      "identifier": {
        "value": "59263"
      },
      "questionnaire": {
        "reference": "urn:uuid:67f920df-67ab-4223-80bb-8e9edc192d56"
      },
      "status": "completed",
      "subject": {
        "reference": "urn:uuid:1f1dee0d-ae77-46f1-8807-90b80d5cdb9e"
      },
      "context": {
        "reference": "urn:uuid:acb73fd5-c9e9-47de-b01a-50e55b02bdc5"
      },
      "authored": "2021-04-06T11:29:26+00:00",
      "item": [ {
        "linkId": "Tx224998",
        "text": "SYSTEM_COVIDLEVEL2",
        "answer": [ {
          "valueString": "==\"covidlevel2\""
        } ]
      } ]
    }
  }, {
    "fullUrl": "urn:uuid:67f920df-67ab-4223-80bb-8e9edc192d56",
    "resource": {
      "resourceType": "Questionnaire",
      "id": "67f920df-67ab-4223-80bb-8e9edc192d56",
      "identifier": [ {
        "value": "59263"
      } ],
      "version": "2021-04-06T11:29:26.887Z",
      "status": "active",
      "experimental": false,
      "date": "2021-04-06T11:29:26+00:00",
      "publisher": "User ID: 'HADFIELDR' User name: 'Ryan Hadfield' User skill set: 'T3'",
      "lastReviewDate": "2021-04-06",
      "contact": [ {
        "telecom": [ {
          "system": "phone",
          "value": "07777 888888"
        } ]
      } ],
      "subjectType": [ "Patient" ],
      "item": [ {
        "linkId": "59263",
        "prefix": "5900",
        "text": "SYSTEM_COVIDLEVEL2",
        "type": "choice",
        "required": true,
        "repeats": false,
        "option": [ {
          "valueString": "==\"covidlevel2\", Selected: true"
        }, {
          "valueString": "*, Selected: false"
        } ]
      } ]
    }
  }, {
    "fullUrl": "urn:uuid:147e0dc0-0219-4eb0-9513-d08673730955",
    "resource": {
      "resourceType": "QuestionnaireResponse",
      "id": "147e0dc0-0219-4eb0-9513-d08673730955",
      "identifier": {
        "value": "59263"
      },
      "questionnaire": {
        "reference": "urn:uuid:de0fedf7-df2d-4431-9d0f-cb050640f575"
      },
      "status": "completed",
      "subject": {
        "reference": "urn:uuid:1f1dee0d-ae77-46f1-8807-90b80d5cdb9e"
      },
      "context": {
        "reference": "urn:uuid:acb73fd5-c9e9-47de-b01a-50e55b02bdc5"
      },
      "authored": "2021-04-06T11:29:26+00:00",
      "item": [ {
        "linkId": "Tx225069",
        "text": "What is the reason for the contact?",
        "answer": [ {
          "valueString": "a prescription request"
        } ]
      } ]
    }
  }, {
    "fullUrl": "urn:uuid:de0fedf7-df2d-4431-9d0f-cb050640f575",
    "resource": {
      "resourceType": "Questionnaire",
      "id": "de0fedf7-df2d-4431-9d0f-cb050640f575",
      "identifier": [ {
        "value": "59263"
      } ],
      "version": "2021-04-06T11:29:26.887Z",
      "status": "active",
      "experimental": false,
      "date": "2021-04-06T11:29:26+00:00",
      "publisher": "User ID: 'HADFIELDR' User name: 'Ryan Hadfield' User skill set: 'T3'",
      "lastReviewDate": "2021-04-06",
      "contact": [ {
        "telecom": [ {
          "system": "phone",
          "value": "07777 888888"
        } ]
      } ],
      "subjectType": [ "Patient" ],
      "item": [ {
        "linkId": "59263",
        "prefix": "6000",
        "text": "What is the reason for the contact?",
        "type": "choice",
        "required": true,
        "repeats": false,
        "option": [ {
          "valueString": "a child protection/vulnerable adult concern (specify), Selected: false"
        }, {
          "valueString": "a social or domestic emergency, Selected: false"
        }, {
          "valueString": "a prescription request, Selected: true"
        }, {
          "valueString": "an appointment request, Selected: false"
        }, {
          "valueString": "a request for health or medication information, Selected: false"
        }, {
          "valueString": "public health alert information, Selected: false"
        } ]
      } ]
    }
  }, {
    "fullUrl": "urn:uuid:5125bd42-5ee7-409f-811e-543de6692789",
    "resource": {
      "resourceType": "QuestionnaireResponse",
      "id": "5125bd42-5ee7-409f-811e-543de6692789",
      "identifier": {
        "value": "59263"
      },
      "questionnaire": {
        "reference": "urn:uuid:953491e2-3bd8-41ee-b7c4-40f5958a6e25"
      },
      "status": "completed",
      "subject": {
        "reference": "urn:uuid:1f1dee0d-ae77-46f1-8807-90b80d5cdb9e"
      },
      "context": {
        "reference": "urn:uuid:acb73fd5-c9e9-47de-b01a-50e55b02bdc5"
      },
      "authored": "2021-04-06T11:29:26+00:00",
      "item": [ {
        "linkId": "Tx220957",
        "text": "Is this contact about a new or worsening illness?",
        "answer": [ {
          "valueString": "no"
        } ]
      } ]
    }
  }, {
    "fullUrl": "urn:uuid:953491e2-3bd8-41ee-b7c4-40f5958a6e25",
    "resource": {
      "resourceType": "Questionnaire",
      "id": "953491e2-3bd8-41ee-b7c4-40f5958a6e25",
      "identifier": [ {
        "value": "59263"
      } ],
      "version": "2021-04-06T11:29:26.887Z",
      "status": "active",
      "experimental": false,
      "date": "2021-04-06T11:29:26+00:00",
      "publisher": "User ID: 'HADFIELDR' User name: 'Ryan Hadfield' User skill set: 'T3'",
      "lastReviewDate": "2021-04-06",
      "contact": [ {
        "telecom": [ {
          "system": "phone",
          "value": "07777 888888"
        } ]
      } ],
      "subjectType": [ "Patient" ],
      "item": [ {
        "linkId": "59263",
        "prefix": "1400",
        "text": "Is this contact about a new or worsening illness?",
        "type": "choice",
        "required": true,
        "repeats": false,
        "option": [ {
          "valueString": "yes, Selected: false"
        }, {
          "valueString": "not sure, Selected: false"
        }, {
          "valueString": "no, Selected: true"
        } ]
      } ]
    }
  }, {
    "fullUrl": "urn:uuid:1d518ee9-13e3-4fd5-a768-5820f46c1fbe",
    "resource": {
      "resourceType": "QuestionnaireResponse",
      "id": "1d518ee9-13e3-4fd5-a768-5820f46c1fbe",
      "identifier": {
        "value": "59263"
      },
      "questionnaire": {
        "reference": "urn:uuid:cb65a1c9-2a80-4002-bf23-46b8c9b1b5b3"
      },
      "status": "completed",
      "subject": {
        "reference": "urn:uuid:1f1dee0d-ae77-46f1-8807-90b80d5cdb9e"
      },
      "context": {
        "reference": "urn:uuid:acb73fd5-c9e9-47de-b01a-50e55b02bdc5"
      },
      "authored": "2021-04-06T11:29:26+00:00",
      "item": [ {
        "linkId": "Tx221352",
        "text": "Have you got enough medication to last until the surgery opens?",
        "answer": [ {
          "valueString": "no"
        } ]
      } ]
    }
  }, {
    "fullUrl": "urn:uuid:cb65a1c9-2a80-4002-bf23-46b8c9b1b5b3",
    "resource": {
      "resourceType": "Questionnaire",
      "id": "cb65a1c9-2a80-4002-bf23-46b8c9b1b5b3",
      "identifier": [ {
        "value": "59263"
      } ],
      "version": "2021-04-06T11:29:26.887Z",
      "status": "active",
      "experimental": false,
      "date": "2021-04-06T11:29:26+00:00",
      "publisher": "User ID: 'HADFIELDR' User name: 'Ryan Hadfield' User skill set: 'T3'",
      "lastReviewDate": "2021-04-06",
      "contact": [ {
        "telecom": [ {
          "system": "phone",
          "value": "07777 888888"
        } ]
      } ],
      "subjectType": [ "Patient" ],
      "item": [ {
        "linkId": "59263",
        "prefix": "1500",
        "text": "Have you got enough medication to last until the surgery opens?",
        "type": "choice",
        "required": true,
        "repeats": false,
        "option": [ {
          "valueString": "yes, Selected: false"
        }, {
          "valueString": "not sure, Selected: false"
        }, {
          "valueString": "no, Selected: true"
        } ]
      } ]
    }
  }, {
    "fullUrl": "urn:uuid:f4c9c642-d878-43dc-87db-214c0030f14f",
    "resource": {
      "resourceType": "QuestionnaireResponse",
      "id": "f4c9c642-d878-43dc-87db-214c0030f14f",
      "identifier": {
        "value": "59263"
      },
      "questionnaire": {
        "reference": "urn:uuid:c64e9722-a880-429e-92cd-9ceb0c5b3032"
      },
      "status": "completed",
      "subject": {
        "reference": "urn:uuid:1f1dee0d-ae77-46f1-8807-90b80d5cdb9e"
      },
      "context": {
        "reference": "urn:uuid:acb73fd5-c9e9-47de-b01a-50e55b02bdc5"
      },
      "authored": "2021-04-06T11:29:26+00:00"
    }
  }, {
    "fullUrl": "urn:uuid:c64e9722-a880-429e-92cd-9ceb0c5b3032",
    "resource": {
      "resourceType": "Questionnaire",
      "id": "c64e9722-a880-429e-92cd-9ceb0c5b3032",
      "identifier": [ {
        "value": "59263"
      } ],
      "version": "2021-04-06T11:29:26.887Z",
      "status": "active",
      "experimental": false,
      "date": "2021-04-06T11:29:26+00:00",
      "publisher": "User ID: 'HADFIELDR' User name: 'Ryan Hadfield' User skill set: 'T3'",
      "lastReviewDate": "2021-04-06",
      "contact": [ {
        "telecom": [ {
          "system": "phone",
          "value": "07777 888888"
        } ]
      } ],
      "subjectType": [ "Patient" ]
    }
  }, {
    "fullUrl": "urn:uuid:152f6a0e-9d12-4ab5-8876-7dd0ea7e9375",
    "resource": {
      "resourceType": "QuestionnaireResponse",
      "id": "152f6a0e-9d12-4ab5-8876-7dd0ea7e9375",
      "identifier": {
        "value": "59263"
      },
      "questionnaire": {
        "reference": "urn:uuid:62a3a9a3-f95e-4c3e-9d68-a72249d67ee6"
      },
      "status": "completed",
      "subject": {
        "reference": "urn:uuid:1f1dee0d-ae77-46f1-8807-90b80d5cdb9e"
      },
      "context": {
        "reference": "urn:uuid:acb73fd5-c9e9-47de-b01a-50e55b02bdc5"
      },
      "authored": "2021-04-06T11:29:26+00:00",
      "item": [ {
        "linkId": "Tx224231",
        "text": "FROM WHAT YOU HAVE HEARD IS A CONSULTATION WITH A PRESCRIBER NEEDED?",
        "answer": [ {
          "valueString": "no"
        } ]
      } ]
    }
  }, {
    "fullUrl": "urn:uuid:62a3a9a3-f95e-4c3e-9d68-a72249d67ee6",
    "resource": {
      "resourceType": "Questionnaire",
      "id": "62a3a9a3-f95e-4c3e-9d68-a72249d67ee6",
      "identifier": [ {
        "value": "59263"
      } ],
      "version": "2021-04-06T11:29:26.887Z",
      "status": "active",
      "experimental": false,
      "date": "2021-04-06T11:29:26+00:00",
      "publisher": "User ID: 'HADFIELDR' User name: 'Ryan Hadfield' User skill set: 'T3'",
      "lastReviewDate": "2021-04-06",
      "contact": [ {
        "telecom": [ {
          "system": "phone",
          "value": "07777 888888"
        } ]
      } ],
      "subjectType": [ "Patient" ],
      "item": [ {
        "linkId": "59263",
        "prefix": "0",
        "text": "FROM WHAT YOU HAVE HEARD IS A CONSULTATION WITH A PRESCRIBER NEEDED?",
        "type": "choice",
        "required": true,
        "repeats": false,
        "option": [ {
          "valueString": "yes, Selected: false"
        }, {
          "valueString": "not sure, Selected: false"
        }, {
          "valueString": "no, Selected: true"
        } ]
      } ]
    }
  }, {
    "fullUrl": "urn:uuid:8a423eb1-b381-4c12-babd-f48f77cee447",
    "resource": {
      "resourceType": "QuestionnaireResponse",
      "id": "8a423eb1-b381-4c12-babd-f48f77cee447",
      "identifier": {
        "value": "59263"
      },
      "questionnaire": {
        "reference": "urn:uuid:6b720aeb-ae78-4d9d-a19a-6a9024aab5d1"
      },
      "status": "completed",
      "subject": {
        "reference": "urn:uuid:1f1dee0d-ae77-46f1-8807-90b80d5cdb9e"
      },
      "context": {
        "reference": "urn:uuid:acb73fd5-c9e9-47de-b01a-50e55b02bdc5"
      },
      "authored": "2021-04-06T11:29:26+00:00",
      "item": [ {
        "linkId": "Tx222687",
        "text": "Have you got any of the medication available at the moment?",
        "answer": [ {
          "valueString": "no"
        } ]
      } ]
    }
  }, {
    "fullUrl": "urn:uuid:6b720aeb-ae78-4d9d-a19a-6a9024aab5d1",
    "resource": {
      "resourceType": "Questionnaire",
      "id": "6b720aeb-ae78-4d9d-a19a-6a9024aab5d1",
      "identifier": [ {
        "value": "59263"
      } ],
      "version": "2021-04-06T11:29:26.887Z",
      "status": "active",
      "experimental": false,
      "date": "2021-04-06T11:29:26+00:00",
      "publisher": "User ID: 'HADFIELDR' User name: 'Ryan Hadfield' User skill set: 'T3'",
      "lastReviewDate": "2021-04-06",
      "contact": [ {
        "telecom": [ {
          "system": "phone",
          "value": "07777 888888"
        } ]
      } ],
      "subjectType": [ "Patient" ],
      "item": [ {
        "linkId": "59263",
        "prefix": "200",
        "text": "Have you got any of the medication available at the moment?",
        "type": "choice",
        "required": true,
        "repeats": false,
        "option": [ {
          "valueString": "yes, Selected: false"
        }, {
          "valueString": "not sure, Selected: false"
        }, {
          "valueString": "no, Selected: true"
        } ]
      } ]
    }
  }, {
    "fullUrl": "urn:uuid:d495f92f-120d-4583-83ed-e76b6ca39b36",
    "resource": {
      "resourceType": "QuestionnaireResponse",
      "id": "d495f92f-120d-4583-83ed-e76b6ca39b36",
      "identifier": {
        "value": "59263"
      },
      "questionnaire": {
        "reference": "urn:uuid:2f7329a7-88e2-4cb7-87cd-10532e2430f7"
      },
      "status": "completed",
      "subject": {
        "reference": "urn:uuid:1f1dee0d-ae77-46f1-8807-90b80d5cdb9e"
      },
      "context": {
        "reference": "urn:uuid:acb73fd5-c9e9-47de-b01a-50e55b02bdc5"
      },
      "authored": "2021-04-06T11:29:26+00:00",
      "item": [ {
        "linkId": "Tx221367",
        "text": "When is the next dose due?",
        "answer": [ {
          "valueString": "within the next 12 hours"
        } ]
      } ]
    }
  }, {
    "fullUrl": "urn:uuid:2f7329a7-88e2-4cb7-87cd-10532e2430f7",
    "resource": {
      "resourceType": "Questionnaire",
      "id": "2f7329a7-88e2-4cb7-87cd-10532e2430f7",
      "identifier": [ {
        "value": "59263"
      } ],
      "version": "2021-04-06T11:29:26.887Z",
      "status": "active",
      "experimental": false,
      "date": "2021-04-06T11:29:26+00:00",
      "publisher": "User ID: 'HADFIELDR' User name: 'Ryan Hadfield' User skill set: 'T3'",
      "lastReviewDate": "2021-04-06",
      "contact": [ {
        "telecom": [ {
          "system": "phone",
          "value": "07777 888888"
        } ]
      } ],
      "subjectType": [ "Patient" ],
      "item": [ {
        "linkId": "59263",
        "prefix": "100",
        "text": "When is the next dose due?",
        "type": "choice",
        "required": true,
        "repeats": false,
        "option": [ {
          "valueString": "within the next 2 hours, Selected: false"
        }, {
          "valueString": "within the next 6 hours, Selected: false"
        }, {
          "valueString": "within the next 12 hours, Selected: true"
        }, {
          "valueString": "over 12 hours time, Selected: false"
        }, {
          "valueString": "not sure, Selected: false"
        } ]
      } ]
    }
  }, {
    "fullUrl": "urn:uuid:3318f81c-08b1-43ba-be71-727fe3b82ad3",
    "resource": {
      "resourceType": "QuestionnaireResponse",
      "id": "3318f81c-08b1-43ba-be71-727fe3b82ad3",
      "identifier": {
        "value": "59263"
      },
      "questionnaire": {
        "reference": "urn:uuid:931a742c-acae-44d4-b9ad-845d70dce221"
      },
      "status": "completed",
      "subject": {
        "reference": "urn:uuid:1f1dee0d-ae77-46f1-8807-90b80d5cdb9e"
      },
      "context": {
        "reference": "urn:uuid:acb73fd5-c9e9-47de-b01a-50e55b02bdc5"
      },
      "authored": "2021-04-06T11:29:26+00:00",
      "item": [ {
        "linkId": "Tx223441",
        "text": "STRING:SDPCRepeatPrescription",
        "answer": [ {
          "valueString": "\"PC repeat prescription\""
        } ]
      } ]
    }
  }, {
    "fullUrl": "urn:uuid:931a742c-acae-44d4-b9ad-845d70dce221",
    "resource": {
      "resourceType": "Questionnaire",
      "id": "931a742c-acae-44d4-b9ad-845d70dce221",
      "identifier": [ {
        "value": "59263"
      } ],
      "version": "2021-04-06T11:29:26.887Z",
      "status": "active",
      "experimental": false,
      "date": "2021-04-06T11:29:26+00:00",
      "publisher": "User ID: 'HADFIELDR' User name: 'Ryan Hadfield' User skill set: 'T3'",
      "lastReviewDate": "2021-04-06",
      "contact": [ {
        "telecom": [ {
          "system": "phone",
          "value": "07777 888888"
        } ]
      } ],
      "subjectType": [ "Patient" ],
      "item": [ {
        "linkId": "59263",
        "prefix": "1200",
        "text": "STRING:SDPCRepeatPrescription",
        "type": "choice",
        "required": true,
        "repeats": false,
        "option": [ {
          "valueString": "\"PC repeat prescription\", Selected: true"
        } ]
      } ]
    }
  }, {
    "fullUrl": "urn:uuid:52f7f288-ad5d-4c1f-ad7f-d77e50c2376a",
    "resource": {
      "resourceType": "QuestionnaireResponse",
      "id": "52f7f288-ad5d-4c1f-ad7f-d77e50c2376a",
      "identifier": {
        "value": "59263"
      },
      "questionnaire": {
        "reference": "urn:uuid:2fcd196d-d7eb-4738-a7f3-ded6673f3b56"
      },
      "status": "completed",
      "subject": {
        "reference": "urn:uuid:1f1dee0d-ae77-46f1-8807-90b80d5cdb9e"
      },
      "context": {
        "reference": "urn:uuid:acb73fd5-c9e9-47de-b01a-50e55b02bdc5"
      },
      "authored": "2021-04-06T11:29:26+00:00"
    }
  }, {
    "fullUrl": "urn:uuid:2fcd196d-d7eb-4738-a7f3-ded6673f3b56",
    "resource": {
      "resourceType": "Questionnaire",
      "id": "2fcd196d-d7eb-4738-a7f3-ded6673f3b56",
      "identifier": [ {
        "value": "59263"
      } ],
      "version": "2021-04-06T11:29:26.887Z",
      "status": "active",
      "experimental": false,
      "date": "2021-04-06T11:29:26+00:00",
      "publisher": "User ID: 'HADFIELDR' User name: 'Ryan Hadfield' User skill set: 'T3'",
      "lastReviewDate": "2021-04-06",
      "contact": [ {
        "telecom": [ {
          "system": "phone",
          "value": "07777 888888"
        } ]
      } ],
      "subjectType": [ "Patient" ]
    }
  }, {
    "fullUrl": "urn:uuid:d934aef8-b919-432d-abe7-3132e2aa9974",
    "resource": {
      "resourceType": "QuestionnaireResponse",
      "id": "d934aef8-b919-432d-abe7-3132e2aa9974",
      "identifier": {
        "value": "59263"
      },
      "questionnaire": {
        "reference": "urn:uuid:1da9fa72-a423-49c1-bf8a-96e7ca21e9d6"
      },
      "status": "completed",
      "subject": {
        "reference": "urn:uuid:1f1dee0d-ae77-46f1-8807-90b80d5cdb9e"
      },
      "context": {
        "reference": "urn:uuid:acb73fd5-c9e9-47de-b01a-50e55b02bdc5"
      },
      "authored": "2021-04-06T11:29:26+00:00",
      "item": [ {
        "linkId": "Tx220074",
        "text": "What is the reason for the contact?",
        "answer": [ {
          "valueString": "an injury or other health problem"
        } ]
      } ]
    }
  }, {
    "fullUrl": "urn:uuid:1da9fa72-a423-49c1-bf8a-96e7ca21e9d6",
    "resource": {
      "resourceType": "Questionnaire",
      "id": "1da9fa72-a423-49c1-bf8a-96e7ca21e9d6",
      "identifier": [ {
        "value": "59263"
      } ],
      "version": "2021-04-06T11:29:26.887Z",
      "status": "active",
      "experimental": false,
      "date": "2021-04-06T11:29:26+00:00",
      "publisher": "User ID: 'HADFIELDR' User name: 'Ryan Hadfield' User skill set: 'T3'",
      "lastReviewDate": "2021-04-06",
      "contact": [ {
        "telecom": [ {
          "system": "phone",
          "value": "07777 888888"
        } ]
      } ],
      "subjectType": [ "Patient" ],
      "item": [ {
        "linkId": "59263",
        "prefix": "5",
        "text": "What is the reason for the contact?",
        "type": "choice",
        "required": true,
        "repeats": false,
        "option": [ {
          "valueString": "an injury or other health problem, Selected: true"
        }, {
          "valueString": "labour or childbirth, Selected: false"
        }, {
          "valueString": "a need to access another healthcare service, Selected: false"
        }, {
          "valueString": "a healthcare professional requesting contact with another clinician, Selected: false"
        }, {
          "valueString": "a report of results or tests, Selected: false"
        }, {
          "valueString": "a possible failure of contraception, Selected: false"
        }, {
          "valueString": "more, Selected: false"
        } ]
      } ]
    }
  }, {
    "fullUrl": "urn:uuid:bc3aa658-0ce9-4ef7-b167-3da41e38bfba",
    "resource": {
      "resourceType": "QuestionnaireResponse",
      "id": "bc3aa658-0ce9-4ef7-b167-3da41e38bfba",
      "identifier": {
        "value": "59263"
      },
      "questionnaire": {
        "reference": "urn:uuid:fb40e350-b3ce-4139-b3b9-d34005d38dc5"
      },
      "status": "completed",
      "subject": {
        "reference": "urn:uuid:1f1dee0d-ae77-46f1-8807-90b80d5cdb9e"
      },
      "context": {
        "reference": "urn:uuid:acb73fd5-c9e9-47de-b01a-50e55b02bdc5"
      },
      "authored": "2021-04-06T11:29:26+00:00",
      "item": [ {
        "linkId": "Tx221807",
        "text": "STRING:to'Immediatethreatstolife(SPA/OOHversion)'-'Majorbloodloss'stem",
        "answer": [ {
          "valueString": "\"present\""
        } ]
      } ]
    }
  }, {
    "fullUrl": "urn:uuid:fb40e350-b3ce-4139-b3b9-d34005d38dc5",
    "resource": {
      "resourceType": "Questionnaire",
      "id": "fb40e350-b3ce-4139-b3b9-d34005d38dc5",
      "identifier": [ {
        "value": "59263"
      } ],
      "version": "2021-04-06T11:29:26.887Z",
      "status": "active",
      "experimental": false,
      "date": "2021-04-06T11:29:26+00:00",
      "publisher": "User ID: 'HADFIELDR' User name: 'Ryan Hadfield' User skill set: 'T3'",
      "lastReviewDate": "2021-04-06",
      "contact": [ {
        "telecom": [ {
          "system": "phone",
          "value": "07777 888888"
        } ]
      } ],
      "subjectType": [ "Patient" ],
      "item": [ {
        "linkId": "59263",
        "prefix": "200",
        "text": "STRING:to'Immediatethreatstolife(SPA/OOHversion)'-'Majorbloodloss'stem",
        "type": "choice",
        "required": true,
        "repeats": false,
        "option": [ {
          "valueString": "\"present\", Selected: true"
        } ]
      } ]
    }
  }, {
    "fullUrl": "urn:uuid:b6293771-68dd-4f37-81eb-1d4060389d0f",
    "resource": {
      "resourceType": "QuestionnaireResponse",
      "id": "b6293771-68dd-4f37-81eb-1d4060389d0f",
      "identifier": {
        "value": "59263"
      },
      "questionnaire": {
        "reference": "urn:uuid:d38e512f-3f81-4acb-9644-f21695716738"
      },
      "status": "completed",
      "subject": {
        "reference": "urn:uuid:1f1dee0d-ae77-46f1-8807-90b80d5cdb9e"
      },
      "context": {
        "reference": "urn:uuid:acb73fd5-c9e9-47de-b01a-50e55b02bdc5"
      },
      "authored": "2021-04-06T11:29:26+00:00"
    }
  }, {
    "fullUrl": "urn:uuid:d38e512f-3f81-4acb-9644-f21695716738",
    "resource": {
      "resourceType": "Questionnaire",
      "id": "d38e512f-3f81-4acb-9644-f21695716738",
      "identifier": [ {
        "value": "59263"
      } ],
      "version": "2021-04-06T11:29:26.887Z",
      "status": "active",
      "experimental": false,
      "date": "2021-04-06T11:29:26+00:00",
      "publisher": "User ID: 'HADFIELDR' User name: 'Ryan Hadfield' User skill set: 'T3'",
      "lastReviewDate": "2021-04-06",
      "contact": [ {
        "telecom": [ {
          "system": "phone",
          "value": "07777 888888"
        } ]
      } ],
      "subjectType": [ "Patient" ]
    }
  }, {
    "fullUrl": "urn:uuid:186cad7e-db1d-4112-88bd-543d043be6e5",
    "resource": {
      "resourceType": "QuestionnaireResponse",
      "id": "186cad7e-db1d-4112-88bd-543d043be6e5",
      "identifier": {
        "value": "59263"
      },
      "questionnaire": {
        "reference": "urn:uuid:925d83f9-d191-42fc-b720-6a0040c3e6ab"
      },
      "status": "completed",
      "subject": {
        "reference": "urn:uuid:1f1dee0d-ae77-46f1-8807-90b80d5cdb9e"
      },
      "context": {
        "reference": "urn:uuid:acb73fd5-c9e9-47de-b01a-50e55b02bdc5"
      },
      "authored": "2021-04-06T11:29:26+00:00",
      "item": [ {
        "linkId": "Tx221799",
        "text": "STRING:injury,illnessorlabourestablishedinEntryFlow",
        "answer": [ {
          "valueString": "\"present\""
        } ]
      } ]
    }
  }, {
    "fullUrl": "urn:uuid:925d83f9-d191-42fc-b720-6a0040c3e6ab",
    "resource": {
      "resourceType": "Questionnaire",
      "id": "925d83f9-d191-42fc-b720-6a0040c3e6ab",
      "identifier": [ {
        "value": "59263"
      } ],
      "version": "2021-04-06T11:29:26.887Z",
      "status": "active",
      "experimental": false,
      "date": "2021-04-06T11:29:26+00:00",
      "publisher": "User ID: 'HADFIELDR' User name: 'Ryan Hadfield' User skill set: 'T3'",
      "lastReviewDate": "2021-04-06",
      "contact": [ {
        "telecom": [ {
          "system": "phone",
          "value": "07777 888888"
        } ]
      } ],
      "subjectType": [ "Patient" ],
      "item": [ {
        "linkId": "59263",
        "prefix": "0",
        "text": "STRING:injury,illnessorlabourestablishedinEntryFlow",
        "type": "choice",
        "required": true,
        "repeats": false,
        "option": [ {
          "valueString": "\"present\", Selected: true"
        } ]
      } ]
    }
  }, {
    "fullUrl": "urn:uuid:d37aae81-5ff9-4314-adb1-44819d304262",
    "resource": {
      "resourceType": "QuestionnaireResponse",
      "id": "d37aae81-5ff9-4314-adb1-44819d304262",
      "identifier": {
        "value": "59263"
      },
      "questionnaire": {
        "reference": "urn:uuid:fbc6ff21-e849-48cd-9482-b537ad82b9aa"
      },
      "status": "completed",
      "subject": {
        "reference": "urn:uuid:1f1dee0d-ae77-46f1-8807-90b80d5cdb9e"
      },
      "context": {
        "reference": "urn:uuid:acb73fd5-c9e9-47de-b01a-50e55b02bdc5"
      },
      "authored": "2021-04-06T11:29:26+00:00",
      "item": [ {
        "linkId": "Tx224120",
        "text": "Have you been bleeding RED BLOOD very heavily IN THE LAST 2 HOURS?",
        "answer": [ {
          "valueString": "no"
        } ]
      } ]
    }
  }, {
    "fullUrl": "urn:uuid:fbc6ff21-e849-48cd-9482-b537ad82b9aa",
    "resource": {
      "resourceType": "Questionnaire",
      "id": "fbc6ff21-e849-48cd-9482-b537ad82b9aa",
      "identifier": [ {
        "value": "59263"
      } ],
      "version": "2021-04-06T11:29:26.887Z",
      "status": "active",
      "experimental": false,
      "date": "2021-04-06T11:29:26+00:00",
      "publisher": "User ID: 'HADFIELDR' User name: 'Ryan Hadfield' User skill set: 'T3'",
      "lastReviewDate": "2021-04-06",
      "contact": [ {
        "telecom": [ {
          "system": "phone",
          "value": "07777 888888"
        } ]
      } ],
      "subjectType": [ "Patient" ],
      "item": [ {
        "linkId": "59263",
        "prefix": "10100",
        "text": "Have you been bleeding RED BLOOD very heavily IN THE LAST 2 HOURS?",
        "type": "choice",
        "required": true,
        "repeats": false,
        "option": [ {
          "valueString": "yes, Selected: false"
        }, {
          "valueString": "not sure, Selected: false"
        }, {
          "valueString": "no, Selected: true"
        } ]
      } ]
    }
  }, {
    "fullUrl": "urn:uuid:6950aedb-362d-4b5d-a495-3cf24290e39b",
    "resource": {
      "resourceType": "QuestionnaireResponse",
      "id": "6950aedb-362d-4b5d-a495-3cf24290e39b",
      "identifier": {
        "value": "59263"
      },
      "questionnaire": {
        "reference": "urn:uuid:13641abf-5a48-4016-b820-f71e48e5bbed"
      },
      "status": "completed",
      "subject": {
        "reference": "urn:uuid:1f1dee0d-ae77-46f1-8807-90b80d5cdb9e"
      },
      "context": {
        "reference": "urn:uuid:acb73fd5-c9e9-47de-b01a-50e55b02bdc5"
      },
      "authored": "2021-04-06T11:29:26+00:00",
      "item": [ {
        "linkId": "Tx221343",
        "text": "SocialConcernsExcluded",
        "answer": [ {
          "valueString": "*"
        } ]
      } ]
    }
  }, {
    "fullUrl": "urn:uuid:13641abf-5a48-4016-b820-f71e48e5bbed",
    "resource": {
      "resourceType": "Questionnaire",
      "id": "13641abf-5a48-4016-b820-f71e48e5bbed",
      "identifier": [ {
        "value": "59263"
      } ],
      "version": "2021-04-06T11:29:26.887Z",
      "status": "active",
      "experimental": false,
      "date": "2021-04-06T11:29:26+00:00",
      "publisher": "User ID: 'HADFIELDR' User name: 'Ryan Hadfield' User skill set: 'T3'",
      "lastReviewDate": "2021-04-06",
      "contact": [ {
        "telecom": [ {
          "system": "phone",
          "value": "07777 888888"
        } ]
      } ],
      "subjectType": [ "Patient" ],
      "item": [ {
        "linkId": "59263",
        "prefix": "1100",
        "text": "SocialConcernsExcluded",
        "type": "choice",
        "required": true,
        "repeats": false,
        "option": [ {
          "valueString": "==\"present\", Selected: false"
        }, {
          "valueString": "*, Selected: true"
        } ]
      } ]
    }
  }, {
    "fullUrl": "urn:uuid:5fb9df24-284e-4cd6-a141-0f688c110f68",
    "resource": {
      "resourceType": "QuestionnaireResponse",
      "id": "5fb9df24-284e-4cd6-a141-0f688c110f68",
      "identifier": {
        "value": "59263"
      },
      "questionnaire": {
        "reference": "urn:uuid:9e4f7431-ee12-4e3d-aef2-6051fda90c06"
      },
      "status": "completed",
      "subject": {
        "reference": "urn:uuid:1f1dee0d-ae77-46f1-8807-90b80d5cdb9e"
      },
      "context": {
        "reference": "urn:uuid:acb73fd5-c9e9-47de-b01a-50e55b02bdc5"
      },
      "authored": "2021-04-06T11:29:26+00:00",
      "item": [ {
        "linkId": "Tx130011",
        "text": "What is the main problem?"
      } ]
    }
  }, {
    "fullUrl": "urn:uuid:9e4f7431-ee12-4e3d-aef2-6051fda90c06",
    "resource": {
      "resourceType": "Questionnaire",
      "id": "9e4f7431-ee12-4e3d-aef2-6051fda90c06",
      "identifier": [ {
        "value": "59263"
      } ],
      "version": "2021-04-06T11:29:26.887Z",
      "status": "active",
      "experimental": false,
      "date": "2021-04-06T11:29:26+00:00",
      "publisher": "User ID: 'HADFIELDR' User name: 'Ryan Hadfield' User skill set: 'T3'",
      "lastReviewDate": "2021-04-06",
      "contact": [ {
        "telecom": [ {
          "system": "phone",
          "value": "07777 888888"
        } ]
      } ],
      "subjectType": [ "Patient" ],
      "item": [ {
        "linkId": "59263",
        "prefix": "2300",
        "text": "What is the main problem?",
        "type": "choice",
        "required": true,
        "repeats": false,
        "option": [ {
          "valueString": "the individual has been told to follow a particular course of action (specify), Selected: false"
        }, {
          "valueString": "the individual is an identified frequent caller, Selected: false"
        }, {
          "valueString": "injury (specify), Selected: false"
        }, {
          "valueString": "illness or other health problem (specify), Selected: false"
        }, {
          "valueString": "child protection/vulnerable adult concern, Selected: false"
        }, {
          "valueString": "social or domestic emergency, Selected: false"
        }, {
          "valueString": "the environment potentially poses an immediate threat to life (specify), Selected: false"
        } ]
      } ]
    }
  }, {
    "fullUrl": "urn:uuid:9a203544-3404-4f1c-8116-50db75be71d8",
    "resource": {
      "resourceType": "QuestionnaireResponse",
      "id": "9a203544-3404-4f1c-8116-50db75be71d8",
      "identifier": {
        "value": "59263"
      },
      "questionnaire": {
        "reference": "urn:uuid:0308defa-c7b2-484c-a746-0806da2e1685"
      },
      "status": "completed",
      "subject": {
        "reference": "urn:uuid:1f1dee0d-ae77-46f1-8807-90b80d5cdb9e"
      },
      "context": {
        "reference": "urn:uuid:acb73fd5-c9e9-47de-b01a-50e55b02bdc5"
      },
      "authored": "2021-04-06T11:29:26+00:00",
      "item": [ {
        "linkId": "Tx220074",
        "text": "What is the reason for the contact?",
        "answer": [ {
          "valueString": "more"
        } ]
      } ]
    }
  }, {
    "fullUrl": "urn:uuid:0308defa-c7b2-484c-a746-0806da2e1685",
    "resource": {
      "resourceType": "Questionnaire",
      "id": "0308defa-c7b2-484c-a746-0806da2e1685",
      "identifier": [ {
        "value": "59263"
      } ],
      "version": "2021-04-06T11:29:26.887Z",
      "status": "active",
      "experimental": false,
      "date": "2021-04-06T11:29:26+00:00",
      "publisher": "User ID: 'HADFIELDR' User name: 'Ryan Hadfield' User skill set: 'T3'",
      "lastReviewDate": "2021-04-06",
      "contact": [ {
        "telecom": [ {
          "system": "phone",
          "value": "07777 888888"
        } ]
      } ],
      "subjectType": [ "Patient" ],
      "item": [ {
        "linkId": "59263",
        "prefix": "5",
        "text": "What is the reason for the contact?",
        "type": "choice",
        "required": true,
        "repeats": false,
        "option": [ {
          "valueString": "an injury or other health problem, Selected: false"
        }, {
          "valueString": "labour or childbirth, Selected: false"
        }, {
          "valueString": "a need to access another healthcare service, Selected: false"
        }, {
          "valueString": "a healthcare professional requesting contact with another clinician, Selected: false"
        }, {
          "valueString": "a report of results or tests, Selected: false"
        }, {
          "valueString": "a possible failure of contraception, Selected: false"
        }, {
          "valueString": "more, Selected: true"
        } ]
      } ]
    }
  }, {
    "fullUrl": "urn:uuid:9fed5a9d-2bd0-43db-aafe-751fab9e1319",
    "resource": {
      "resourceType": "QuestionnaireResponse",
      "id": "9fed5a9d-2bd0-43db-aafe-751fab9e1319",
      "identifier": {
        "value": "59263"
      },
      "questionnaire": {
        "reference": "urn:uuid:7d6f6f5e-e4b4-4e69-bbf5-3ff340c32e32"
      },
      "status": "completed",
      "subject": {
        "reference": "urn:uuid:1f1dee0d-ae77-46f1-8807-90b80d5cdb9e"
      },
      "context": {
        "reference": "urn:uuid:acb73fd5-c9e9-47de-b01a-50e55b02bdc5"
      },
      "authored": "2021-04-06T11:29:26+00:00",
      "item": [ {
        "linkId": "Tx221793",
        "text": "STRING:to'Social&information'-further'Callreason'menu",
        "answer": [ {
          "valueString": "\"present\""
        } ]
      } ]
    }
  }, {
    "fullUrl": "urn:uuid:7d6f6f5e-e4b4-4e69-bbf5-3ff340c32e32",
    "resource": {
      "resourceType": "Questionnaire",
      "id": "7d6f6f5e-e4b4-4e69-bbf5-3ff340c32e32",
      "identifier": [ {
        "value": "59263"
      } ],
      "version": "2021-04-06T11:29:26.887Z",
      "status": "active",
      "experimental": false,
      "date": "2021-04-06T11:29:26+00:00",
      "publisher": "User ID: 'HADFIELDR' User name: 'Ryan Hadfield' User skill set: 'T3'",
      "lastReviewDate": "2021-04-06",
      "contact": [ {
        "telecom": [ {
          "system": "phone",
          "value": "07777 888888"
        } ]
      } ],
      "subjectType": [ "Patient" ],
      "item": [ {
        "linkId": "59263",
        "prefix": "600",
        "text": "STRING:to'Social&information'-further'Callreason'menu",
        "type": "choice",
        "required": true,
        "repeats": false,
        "option": [ {
          "valueString": "\"present\", Selected: true"
        } ]
      } ]
    }
  }, {
    "fullUrl": "urn:uuid:74a843ae-ffa7-45c3-8d81-6886cb9fc4bb",
    "resource": {
      "resourceType": "QuestionnaireResponse",
      "id": "74a843ae-ffa7-45c3-8d81-6886cb9fc4bb",
      "identifier": {
        "value": "59263"
      },
      "questionnaire": {
        "reference": "urn:uuid:1192461c-3e99-42c9-88b6-ac08a8715f09"
      },
      "status": "completed",
      "subject": {
        "reference": "urn:uuid:1f1dee0d-ae77-46f1-8807-90b80d5cdb9e"
      },
      "context": {
        "reference": "urn:uuid:acb73fd5-c9e9-47de-b01a-50e55b02bdc5"
      },
      "authored": "2021-04-06T11:29:26+00:00"
    }
  }, {
    "fullUrl": "urn:uuid:1192461c-3e99-42c9-88b6-ac08a8715f09",
    "resource": {
      "resourceType": "Questionnaire",
      "id": "1192461c-3e99-42c9-88b6-ac08a8715f09",
      "identifier": [ {
        "value": "59263"
      } ],
      "version": "2021-04-06T11:29:26.887Z",
      "status": "active",
      "experimental": false,
      "date": "2021-04-06T11:29:26+00:00",
      "publisher": "User ID: 'HADFIELDR' User name: 'Ryan Hadfield' User skill set: 'T3'",
      "lastReviewDate": "2021-04-06",
      "contact": [ {
        "telecom": [ {
          "system": "phone",
          "value": "07777 888888"
        } ]
      } ],
      "subjectType": [ "Patient" ]
    }
  }, {
    "fullUrl": "urn:uuid:aba35a9b-9421-42d4-a7ad-557a30d2d1d6",
    "resource": {
      "resourceType": "QuestionnaireResponse",
      "id": "aba35a9b-9421-42d4-a7ad-557a30d2d1d6",
      "identifier": {
        "value": "59263"
      },
      "questionnaire": {
        "reference": "urn:uuid:fa74f3be-1d1e-41a3-8d00-8f105854a7a5"
      },
      "status": "completed",
      "subject": {
        "reference": "urn:uuid:1f1dee0d-ae77-46f1-8807-90b80d5cdb9e"
      },
      "context": {
        "reference": "urn:uuid:acb73fd5-c9e9-47de-b01a-50e55b02bdc5"
      },
      "authored": "2021-04-06T11:29:26+00:00",
      "item": [ {
        "linkId": "Tx221804",
        "text": "STRING:transfertofurthermenuquestionestablishedinEntryFlow",
        "answer": [ {
          "valueString": "\"present\""
        } ]
      } ]
    }
  }, {
    "fullUrl": "urn:uuid:fa74f3be-1d1e-41a3-8d00-8f105854a7a5",
    "resource": {
      "resourceType": "Questionnaire",
      "id": "fa74f3be-1d1e-41a3-8d00-8f105854a7a5",
      "identifier": [ {
        "value": "59263"
      } ],
      "version": "2021-04-06T11:29:26.887Z",
      "status": "active",
      "experimental": false,
      "date": "2021-04-06T11:29:26+00:00",
      "publisher": "User ID: 'HADFIELDR' User name: 'Ryan Hadfield' User skill set: 'T3'",
      "lastReviewDate": "2021-04-06",
      "contact": [ {
        "telecom": [ {
          "system": "phone",
          "value": "07777 888888"
        } ]
      } ],
      "subjectType": [ "Patient" ],
      "item": [ {
        "linkId": "59263",
        "prefix": "41",
        "text": "STRING:transfertofurthermenuquestionestablishedinEntryFlow",
        "type": "choice",
        "required": true,
        "repeats": false,
        "option": [ {
          "valueString": "\"present\", Selected: true"
        } ]
      } ]
    }
  }, {
    "fullUrl": "urn:uuid:b42b2f0f-4b4e-4c65-92ec-a8cec6686642",
    "resource": {
      "resourceType": "QuestionnaireResponse",
      "id": "b42b2f0f-4b4e-4c65-92ec-a8cec6686642",
      "identifier": {
        "value": "59263"
      },
      "questionnaire": {
        "reference": "urn:uuid:da1bf57c-44fe-4472-9b1e-b19fb9b4c655"
      },
      "status": "completed",
      "subject": {
        "reference": "urn:uuid:1f1dee0d-ae77-46f1-8807-90b80d5cdb9e"
      },
      "context": {
        "reference": "urn:uuid:acb73fd5-c9e9-47de-b01a-50e55b02bdc5"
      },
      "authored": "2021-04-06T11:29:26+00:00",
      "item": [ {
        "linkId": "Tx224998",
        "text": "SYSTEM_COVIDLEVEL2",
        "answer": [ {
          "valueString": "==\"covidlevel2\""
        } ]
      } ]
    }
  }, {
    "fullUrl": "urn:uuid:da1bf57c-44fe-4472-9b1e-b19fb9b4c655",
    "resource": {
      "resourceType": "Questionnaire",
      "id": "da1bf57c-44fe-4472-9b1e-b19fb9b4c655",
      "identifier": [ {
        "value": "59263"
      } ],
      "version": "2021-04-06T11:29:26.887Z",
      "status": "active",
      "experimental": false,
      "date": "2021-04-06T11:29:26+00:00",
      "publisher": "User ID: 'HADFIELDR' User name: 'Ryan Hadfield' User skill set: 'T3'",
      "lastReviewDate": "2021-04-06",
      "contact": [ {
        "telecom": [ {
          "system": "phone",
          "value": "07777 888888"
        } ]
      } ],
      "subjectType": [ "Patient" ],
      "item": [ {
        "linkId": "59263",
        "prefix": "5900",
        "text": "SYSTEM_COVIDLEVEL2",
        "type": "choice",
        "required": true,
        "repeats": false,
        "option": [ {
          "valueString": "==\"covidlevel2\", Selected: true"
        }, {
          "valueString": "*, Selected: false"
        } ]
      } ]
    }
  }, {
    "fullUrl": "urn:uuid:bf517175-c92e-4c75-8b81-cf62c9d73a18",
    "resource": {
      "resourceType": "QuestionnaireResponse",
      "id": "bf517175-c92e-4c75-8b81-cf62c9d73a18",
      "identifier": {
        "value": "59263"
      },
      "questionnaire": {
        "reference": "urn:uuid:d4c990fa-1945-403f-b1cd-caf808d60613"
      },
      "status": "completed",
      "subject": {
        "reference": "urn:uuid:1f1dee0d-ae77-46f1-8807-90b80d5cdb9e"
      },
      "context": {
        "reference": "urn:uuid:acb73fd5-c9e9-47de-b01a-50e55b02bdc5"
      },
      "authored": "2021-04-06T11:29:26+00:00",
      "item": [ {
        "linkId": "Tx225069",
        "text": "What is the reason for the contact?",
        "answer": [ {
          "valueString": "a prescription request"
        } ]
      } ]
    }
  }, {
    "fullUrl": "urn:uuid:d4c990fa-1945-403f-b1cd-caf808d60613",
    "resource": {
      "resourceType": "Questionnaire",
      "id": "d4c990fa-1945-403f-b1cd-caf808d60613",
      "identifier": [ {
        "value": "59263"
      } ],
      "version": "2021-04-06T11:29:26.887Z",
      "status": "active",
      "experimental": false,
      "date": "2021-04-06T11:29:26+00:00",
      "publisher": "User ID: 'HADFIELDR' User name: 'Ryan Hadfield' User skill set: 'T3'",
      "lastReviewDate": "2021-04-06",
      "contact": [ {
        "telecom": [ {
          "system": "phone",
          "value": "07777 888888"
        } ]
      } ],
      "subjectType": [ "Patient" ],
      "item": [ {
        "linkId": "59263",
        "prefix": "6000",
        "text": "What is the reason for the contact?",
        "type": "choice",
        "required": true,
        "repeats": false,
        "option": [ {
          "valueString": "a child protection/vulnerable adult concern (specify), Selected: false"
        }, {
          "valueString": "a social or domestic emergency, Selected: false"
        }, {
          "valueString": "a prescription request, Selected: true"
        }, {
          "valueString": "an appointment request, Selected: false"
        }, {
          "valueString": "a request for health or medication information, Selected: false"
        }, {
          "valueString": "public health alert information, Selected: false"
        } ]
      } ]
    }
  }, {
    "fullUrl": "urn:uuid:fd25019a-8739-4bb1-98ba-a290873215e1",
    "resource": {
      "resourceType": "QuestionnaireResponse",
      "id": "fd25019a-8739-4bb1-98ba-a290873215e1",
      "identifier": {
        "value": "59263"
      },
      "questionnaire": {
        "reference": "urn:uuid:b5c06439-0b5e-4c23-80d5-8ca88189cf66"
      },
      "status": "completed",
      "subject": {
        "reference": "urn:uuid:1f1dee0d-ae77-46f1-8807-90b80d5cdb9e"
      },
      "context": {
        "reference": "urn:uuid:acb73fd5-c9e9-47de-b01a-50e55b02bdc5"
      },
      "authored": "2021-04-06T11:29:26+00:00",
      "item": [ {
        "linkId": "Tx220957",
        "text": "Is this contact about a new or worsening illness?",
        "answer": [ {
          "valueString": "no"
        } ]
      } ]
    }
  }, {
    "fullUrl": "urn:uuid:b5c06439-0b5e-4c23-80d5-8ca88189cf66",
    "resource": {
      "resourceType": "Questionnaire",
      "id": "b5c06439-0b5e-4c23-80d5-8ca88189cf66",
      "identifier": [ {
        "value": "59263"
      } ],
      "version": "2021-04-06T11:29:26.887Z",
      "status": "active",
      "experimental": false,
      "date": "2021-04-06T11:29:26+00:00",
      "publisher": "User ID: 'HADFIELDR' User name: 'Ryan Hadfield' User skill set: 'T3'",
      "lastReviewDate": "2021-04-06",
      "contact": [ {
        "telecom": [ {
          "system": "phone",
          "value": "07777 888888"
        } ]
      } ],
      "subjectType": [ "Patient" ],
      "item": [ {
        "linkId": "59263",
        "prefix": "1400",
        "text": "Is this contact about a new or worsening illness?",
        "type": "choice",
        "required": true,
        "repeats": false,
        "option": [ {
          "valueString": "yes, Selected: false"
        }, {
          "valueString": "not sure, Selected: false"
        }, {
          "valueString": "no, Selected: true"
        } ]
      } ]
    }
  }, {
    "fullUrl": "urn:uuid:40c159a0-10d9-4308-a09a-0fa41cf33641",
    "resource": {
      "resourceType": "QuestionnaireResponse",
      "id": "40c159a0-10d9-4308-a09a-0fa41cf33641",
      "identifier": {
        "value": "59263"
      },
      "questionnaire": {
        "reference": "urn:uuid:2668c7a4-7079-40c3-b3d7-87e07dcf0033"
      },
      "status": "completed",
      "subject": {
        "reference": "urn:uuid:1f1dee0d-ae77-46f1-8807-90b80d5cdb9e"
      },
      "context": {
        "reference": "urn:uuid:acb73fd5-c9e9-47de-b01a-50e55b02bdc5"
      },
      "authored": "2021-04-06T11:29:26+00:00",
      "item": [ {
        "linkId": "Tx221352",
        "text": "Have you got enough medication to last until the surgery opens?",
        "answer": [ {
          "valueString": "no"
        } ]
      } ]
    }
  }, {
    "fullUrl": "urn:uuid:2668c7a4-7079-40c3-b3d7-87e07dcf0033",
    "resource": {
      "resourceType": "Questionnaire",
      "id": "2668c7a4-7079-40c3-b3d7-87e07dcf0033",
      "identifier": [ {
        "value": "59263"
      } ],
      "version": "2021-04-06T11:29:26.887Z",
      "status": "active",
      "experimental": false,
      "date": "2021-04-06T11:29:26+00:00",
      "publisher": "User ID: 'HADFIELDR' User name: 'Ryan Hadfield' User skill set: 'T3'",
      "lastReviewDate": "2021-04-06",
      "contact": [ {
        "telecom": [ {
          "system": "phone",
          "value": "07777 888888"
        } ]
      } ],
      "subjectType": [ "Patient" ],
      "item": [ {
        "linkId": "59263",
        "prefix": "1500",
        "text": "Have you got enough medication to last until the surgery opens?",
        "type": "choice",
        "required": true,
        "repeats": false,
        "option": [ {
          "valueString": "yes, Selected: false"
        }, {
          "valueString": "not sure, Selected: false"
        }, {
          "valueString": "no, Selected: true"
        } ]
      } ]
    }
  }, {
    "fullUrl": "urn:uuid:f9b747db-dc06-443b-a78f-47c30cf913bb",
    "resource": {
      "resourceType": "QuestionnaireResponse",
      "id": "f9b747db-dc06-443b-a78f-47c30cf913bb",
      "identifier": {
        "value": "59263"
      },
      "questionnaire": {
        "reference": "urn:uuid:e0ed282a-b4fb-492a-82b6-8ab4aae5977e"
      },
      "status": "completed",
      "subject": {
        "reference": "urn:uuid:1f1dee0d-ae77-46f1-8807-90b80d5cdb9e"
      },
      "context": {
        "reference": "urn:uuid:acb73fd5-c9e9-47de-b01a-50e55b02bdc5"
      },
      "authored": "2021-04-06T11:29:26+00:00"
    }
  }, {
    "fullUrl": "urn:uuid:e0ed282a-b4fb-492a-82b6-8ab4aae5977e",
    "resource": {
      "resourceType": "Questionnaire",
      "id": "e0ed282a-b4fb-492a-82b6-8ab4aae5977e",
      "identifier": [ {
        "value": "59263"
      } ],
      "version": "2021-04-06T11:29:26.887Z",
      "status": "active",
      "experimental": false,
      "date": "2021-04-06T11:29:26+00:00",
      "publisher": "User ID: 'HADFIELDR' User name: 'Ryan Hadfield' User skill set: 'T3'",
      "lastReviewDate": "2021-04-06",
      "contact": [ {
        "telecom": [ {
          "system": "phone",
          "value": "07777 888888"
        } ]
      } ],
      "subjectType": [ "Patient" ]
    }
  }, {
    "fullUrl": "urn:uuid:4b42ff48-cc8e-4a14-8af0-af8b9eefb6f4",
    "resource": {
      "resourceType": "QuestionnaireResponse",
      "id": "4b42ff48-cc8e-4a14-8af0-af8b9eefb6f4",
      "identifier": {
        "value": "59263"
      },
      "questionnaire": {
        "reference": "urn:uuid:eb8f744b-e8a2-49b2-acc2-25af47e06209"
      },
      "status": "completed",
      "subject": {
        "reference": "urn:uuid:1f1dee0d-ae77-46f1-8807-90b80d5cdb9e"
      },
      "context": {
        "reference": "urn:uuid:acb73fd5-c9e9-47de-b01a-50e55b02bdc5"
      },
      "authored": "2021-04-06T11:29:26+00:00",
      "item": [ {
        "linkId": "Tx224231",
        "text": "FROM WHAT YOU HAVE HEARD IS A CONSULTATION WITH A PRESCRIBER NEEDED?",
        "answer": [ {
          "valueString": "no"
        } ]
      } ]
    }
  }, {
    "fullUrl": "urn:uuid:eb8f744b-e8a2-49b2-acc2-25af47e06209",
    "resource": {
      "resourceType": "Questionnaire",
      "id": "eb8f744b-e8a2-49b2-acc2-25af47e06209",
      "identifier": [ {
        "value": "59263"
      } ],
      "version": "2021-04-06T11:29:26.887Z",
      "status": "active",
      "experimental": false,
      "date": "2021-04-06T11:29:26+00:00",
      "publisher": "User ID: 'HADFIELDR' User name: 'Ryan Hadfield' User skill set: 'T3'",
      "lastReviewDate": "2021-04-06",
      "contact": [ {
        "telecom": [ {
          "system": "phone",
          "value": "07777 888888"
        } ]
      } ],
      "subjectType": [ "Patient" ],
      "item": [ {
        "linkId": "59263",
        "prefix": "0",
        "text": "FROM WHAT YOU HAVE HEARD IS A CONSULTATION WITH A PRESCRIBER NEEDED?",
        "type": "choice",
        "required": true,
        "repeats": false,
        "option": [ {
          "valueString": "yes, Selected: false"
        }, {
          "valueString": "not sure, Selected: false"
        }, {
          "valueString": "no, Selected: true"
        } ]
      } ]
    }
  }, {
    "fullUrl": "urn:uuid:8c2dae81-4e4a-4294-be7f-bb62f767b8ea",
    "resource": {
      "resourceType": "QuestionnaireResponse",
      "id": "8c2dae81-4e4a-4294-be7f-bb62f767b8ea",
      "identifier": {
        "value": "59263"
      },
      "questionnaire": {
        "reference": "urn:uuid:e824a8df-5b16-42ab-b614-6b2941b1640a"
      },
      "status": "completed",
      "subject": {
        "reference": "urn:uuid:1f1dee0d-ae77-46f1-8807-90b80d5cdb9e"
      },
      "context": {
        "reference": "urn:uuid:acb73fd5-c9e9-47de-b01a-50e55b02bdc5"
      },
      "authored": "2021-04-06T11:29:26+00:00",
      "item": [ {
        "linkId": "Tx222687",
        "text": "Have you got any of the medication available at the moment?",
        "answer": [ {
          "valueString": "no"
        } ]
      } ]
    }
  }, {
    "fullUrl": "urn:uuid:e824a8df-5b16-42ab-b614-6b2941b1640a",
    "resource": {
      "resourceType": "Questionnaire",
      "id": "e824a8df-5b16-42ab-b614-6b2941b1640a",
      "identifier": [ {
        "value": "59263"
      } ],
      "version": "2021-04-06T11:29:26.887Z",
      "status": "active",
      "experimental": false,
      "date": "2021-04-06T11:29:26+00:00",
      "publisher": "User ID: 'HADFIELDR' User name: 'Ryan Hadfield' User skill set: 'T3'",
      "lastReviewDate": "2021-04-06",
      "contact": [ {
        "telecom": [ {
          "system": "phone",
          "value": "07777 888888"
        } ]
      } ],
      "subjectType": [ "Patient" ],
      "item": [ {
        "linkId": "59263",
        "prefix": "200",
        "text": "Have you got any of the medication available at the moment?",
        "type": "choice",
        "required": true,
        "repeats": false,
        "option": [ {
          "valueString": "yes, Selected: false"
        }, {
          "valueString": "not sure, Selected: false"
        }, {
          "valueString": "no, Selected: true"
        } ]
      } ]
    }
  }, {
    "fullUrl": "urn:uuid:05c0b583-c680-48c4-823e-aa7151ba7537",
    "resource": {
      "resourceType": "QuestionnaireResponse",
      "id": "05c0b583-c680-48c4-823e-aa7151ba7537",
      "identifier": {
        "value": "59263"
      },
      "questionnaire": {
        "reference": "urn:uuid:c61d74f9-1654-431d-a3bc-5b5e45206eac"
      },
      "status": "completed",
      "subject": {
        "reference": "urn:uuid:1f1dee0d-ae77-46f1-8807-90b80d5cdb9e"
      },
      "context": {
        "reference": "urn:uuid:acb73fd5-c9e9-47de-b01a-50e55b02bdc5"
      },
      "authored": "2021-04-06T11:29:26+00:00",
      "item": [ {
        "linkId": "Tx221367",
        "text": "When is the next dose due?",
        "answer": [ {
          "valueString": "within the next 12 hours"
        } ]
      } ]
    }
  }, {
    "fullUrl": "urn:uuid:c61d74f9-1654-431d-a3bc-5b5e45206eac",
    "resource": {
      "resourceType": "Questionnaire",
      "id": "c61d74f9-1654-431d-a3bc-5b5e45206eac",
      "identifier": [ {
        "value": "59263"
      } ],
      "version": "2021-04-06T11:29:26.887Z",
      "status": "active",
      "experimental": false,
      "date": "2021-04-06T11:29:26+00:00",
      "publisher": "User ID: 'HADFIELDR' User name: 'Ryan Hadfield' User skill set: 'T3'",
      "lastReviewDate": "2021-04-06",
      "contact": [ {
        "telecom": [ {
          "system": "phone",
          "value": "07777 888888"
        } ]
      } ],
      "subjectType": [ "Patient" ],
      "item": [ {
        "linkId": "59263",
        "prefix": "100",
        "text": "When is the next dose due?",
        "type": "choice",
        "required": true,
        "repeats": false,
        "option": [ {
          "valueString": "within the next 2 hours, Selected: false"
        }, {
          "valueString": "within the next 6 hours, Selected: false"
        }, {
          "valueString": "within the next 12 hours, Selected: true"
        }, {
          "valueString": "over 12 hours time, Selected: false"
        }, {
          "valueString": "not sure, Selected: false"
        } ]
      } ]
    }
  }, {
    "fullUrl": "urn:uuid:584df5c5-2db1-4011-ae83-87e7dcb2a122",
    "resource": {
      "resourceType": "QuestionnaireResponse",
      "id": "584df5c5-2db1-4011-ae83-87e7dcb2a122",
      "identifier": {
        "value": "59263"
      },
      "questionnaire": {
        "reference": "urn:uuid:28e4b3b6-c627-478b-aa14-2c66105dcd49"
      },
      "status": "completed",
      "subject": {
        "reference": "urn:uuid:1f1dee0d-ae77-46f1-8807-90b80d5cdb9e"
      },
      "context": {
        "reference": "urn:uuid:acb73fd5-c9e9-47de-b01a-50e55b02bdc5"
      },
      "authored": "2021-04-06T11:29:26+00:00",
      "item": [ {
        "linkId": "Tx223441",
        "text": "STRING:SDPCRepeatPrescription",
        "answer": [ {
          "valueString": "\"PC repeat prescription\""
        } ]
      } ]
    }
  }, {
    "fullUrl": "urn:uuid:28e4b3b6-c627-478b-aa14-2c66105dcd49",
    "resource": {
      "resourceType": "Questionnaire",
      "id": "28e4b3b6-c627-478b-aa14-2c66105dcd49",
      "identifier": [ {
        "value": "59263"
      } ],
      "version": "2021-04-06T11:29:26.887Z",
      "status": "active",
      "experimental": false,
      "date": "2021-04-06T11:29:26+00:00",
      "publisher": "User ID: 'HADFIELDR' User name: 'Ryan Hadfield' User skill set: 'T3'",
      "lastReviewDate": "2021-04-06",
      "contact": [ {
        "telecom": [ {
          "system": "phone",
          "value": "07777 888888"
        } ]
      } ],
      "subjectType": [ "Patient" ],
      "item": [ {
        "linkId": "59263",
        "prefix": "1200",
        "text": "STRING:SDPCRepeatPrescription",
        "type": "choice",
        "required": true,
        "repeats": false,
        "option": [ {
          "valueString": "\"PC repeat prescription\", Selected: true"
        } ]
      } ]
    }
  }, {
    "fullUrl": "urn:uuid:d0ab7c63-7180-4f58-8e5d-276074b2cff9",
    "resource": {
      "resourceType": "QuestionnaireResponse",
      "id": "d0ab7c63-7180-4f58-8e5d-276074b2cff9",
      "identifier": {
        "value": "59263"
      },
      "questionnaire": {
        "reference": "urn:uuid:29cf2b4b-a0c4-4d79-84ee-f4d8ccf108a8"
      },
      "status": "completed",
      "subject": {
        "reference": "urn:uuid:1f1dee0d-ae77-46f1-8807-90b80d5cdb9e"
      },
      "context": {
        "reference": "urn:uuid:acb73fd5-c9e9-47de-b01a-50e55b02bdc5"
      },
      "authored": "2021-04-06T11:29:26+00:00"
    }
  }, {
    "fullUrl": "urn:uuid:29cf2b4b-a0c4-4d79-84ee-f4d8ccf108a8",
    "resource": {
      "resourceType": "Questionnaire",
      "id": "29cf2b4b-a0c4-4d79-84ee-f4d8ccf108a8",
      "identifier": [ {
        "value": "59263"
      } ],
      "version": "2021-04-06T11:29:26.887Z",
      "status": "active",
      "experimental": false,
      "date": "2021-04-06T11:29:26+00:00",
      "publisher": "User ID: 'HADFIELDR' User name: 'Ryan Hadfield' User skill set: 'T3'",
      "lastReviewDate": "2021-04-06",
      "contact": [ {
        "telecom": [ {
          "system": "phone",
          "value": "07777 888888"
        } ]
      } ],
      "subjectType": [ "Patient" ]
    }
  }, {
    "fullUrl": "urn:uuid:3ffa410f-2915-4cb3-a6ed-689e4290b5be",
    "resource": {
      "resourceType": "QuestionnaireResponse",
      "id": "3ffa410f-2915-4cb3-a6ed-689e4290b5be",
      "identifier": {
        "value": "59263"
      },
      "questionnaire": {
        "reference": "urn:uuid:6a0b7d0d-3002-4fab-b708-23b2b7e8e57c"
      },
      "status": "completed",
      "subject": {
        "reference": "urn:uuid:1f1dee0d-ae77-46f1-8807-90b80d5cdb9e"
      },
      "context": {
        "reference": "urn:uuid:acb73fd5-c9e9-47de-b01a-50e55b02bdc5"
      },
      "authored": "2021-04-06T11:29:26+00:00"
    }
  }, {
    "fullUrl": "urn:uuid:6a0b7d0d-3002-4fab-b708-23b2b7e8e57c",
    "resource": {
      "resourceType": "Questionnaire",
      "id": "6a0b7d0d-3002-4fab-b708-23b2b7e8e57c",
      "identifier": [ {
        "value": "59263"
      } ],
      "version": "2021-04-06T11:29:26.887Z",
      "status": "active",
      "experimental": false,
      "date": "2021-04-06T11:29:26+00:00",
      "publisher": "User ID: 'HADFIELDR' User name: 'Ryan Hadfield' User skill set: 'T3'",
      "lastReviewDate": "2021-04-06",
      "contact": [ {
        "telecom": [ {
          "system": "phone",
          "value": "07777 888888"
        } ]
      } ],
      "subjectType": [ "Patient" ]
    }
  }, {
    "fullUrl": "urn:uuid:ebcbd069-80ac-420a-889e-21e9bd3c07a5",
    "resource": {
      "resourceType": "Observation",
      "id": "ebcbd069-80ac-420a-889e-21e9bd3c07a5",
      "status": "final",
      "code": {
        "coding": [ {
          "system": "http://snomed.info/sct",
          "code": "33962009",
          "display": "Presenting complaint"
        } ]
      },
      "subject": {
        "reference": "urn:uuid:1f1dee0d-ae77-46f1-8807-90b80d5cdb9e"
      },
      "context": {
        "reference": "urn:uuid:acb73fd5-c9e9-47de-b01a-50e55b02bdc5"
      },
      "valueString": "test"
    }
  }, {
    "fullUrl": "urn:uuid:182635c9-f378-43b7-a8ab-5bcf1ed19012",
    "resource": {
      "resourceType": "PractitionerRole",
      "id": "182635c9-f378-43b7-a8ab-5bcf1ed19012",
      "practitioner": {
        "reference": "urn:uuid:3e2808a9-d813-4d4b-abd7-582387f558bb"
      },
      "organization": {
        "reference": "urn:uuid:4650082a-e7a3-49db-80bc-36d9a3a115fc"
      },
      "code": [ {
        "coding": [ {
          "system": "2.16.840.1.113883.2.1.3.2.4.17.339",
          "code": "DOCTOR",
          "display": "Doctor"
        } ]
      } ]
    }
  }, {
    "fullUrl": "urn:uuid:4650082a-e7a3-49db-80bc-36d9a3a115fc",
    "resource": {
      "resourceType": "Organization",
      "id": "4650082a-e7a3-49db-80bc-36d9a3a115fc",
      "identifier": [ {
        "value": "RYE"
      } ],
      "name": "1.SCAS Administrator (SCAS111)"
    }
  }, {
    "fullUrl": "urn:uuid:5a7c1cf4-7b89-42b4-8a89-2d6961cf498a",
    "resource": {
      "resourceType": "PractitionerRole",
      "id": "5a7c1cf4-7b89-42b4-8a89-2d6961cf498a",
      "practitioner": {
        "reference": "urn:uuid:edec3c58-c3b1-49e9-a0e0-bef004f6380d"
      },
      "organization": {
        "reference": "urn:uuid:ca5e5d61-0f1d-4dd0-bbd2-8d1143ca2f9d"
      },
      "code": [ {
        "coding": [ {
          "system": "2.16.840.1.113883.2.1.3.2.4.17.196",
          "code": "R0010",
          "display": "Medical Director"
        } ]
      } ]
    }
  }, {
    "fullUrl": "urn:uuid:ca5e5d61-0f1d-4dd0-bbd2-8d1143ca2f9d",
    "resource": {
      "resourceType": "Organization",
      "id": "ca5e5d61-0f1d-4dd0-bbd2-8d1143ca2f9d",
      "identifier": [ {
        "value": "RYE"
      } ],
      "name": "SCAS111"
    }
  }, {
    "fullUrl": "urn:uuid:e698402d-cc75-4eee-bf2f-861aff739bd8",
    "resource": {
      "resourceType": "RelatedPerson",
      "id": "e698402d-cc75-4eee-bf2f-861aff739bd8",
      "patient": {
        "reference": "urn:uuid:1f1dee0d-ae77-46f1-8807-90b80d5cdb9e"
      },
      "relationship": {
        "coding": [ {
          "system": "http://hl7.org/fhir/v2/0131",
          "code": "C",
          "display": "Emergency Contact"
        } ]
      },
      "telecom": [ {
        "system": "phone",
        "value": "tel:000000000000"
      } ]
    }
  }, {
    "fullUrl": "urn:uuid:be82ac61-a0e2-4d00-9556-073edad9a9ef",
    "resource": {
      "resourceType": "Device",
      "id": "be82ac61-a0e2-4d00-9556-073edad9a9ef",
      "model": "111 Adaptor",
      "version": "1.0.0"
    }
  }, {
    "fullUrl": "urn:uuid:d29b5935-c686-42a6-8b45-614af7aa7b92",
    "resource": {
      "resourceType": "List",
      "id": "d29b5935-c686-42a6-8b45-614af7aa7b92",
      "status": "current",
      "mode": "working",
      "title": "111 Report List",
      "code": {
        "coding": [ {
          "system": "http://snomed.info/sct",
          "code": "225390008",
          "display": "Triage"
        } ]
      },
      "subject": {
        "reference": "urn:uuid:1f1dee0d-ae77-46f1-8807-90b80d5cdb9e"
      },
      "encounter": {
        "reference": "urn:uuid:acb73fd5-c9e9-47de-b01a-50e55b02bdc5"
      },
      "date": "2021-10-11T06:41:47+00:00",
      "source": {
        "reference": "urn:uuid:be82ac61-a0e2-4d00-9556-073edad9a9ef"
      },
      "orderedBy": {
        "coding": [ {
          "system": "http://hl7.org/fhir/list-order",
          "code": "event-date",
          "display": "Sorted by Event Date"
        } ]
      },
      "entry": [ {
        "item": {
          "reference": "urn:uuid:ebcbd069-80ac-420a-889e-21e9bd3c07a5"
        }
      }, {
        "item": {
          "reference": "urn:uuid:ca5e5d61-0f1d-4dd0-bbd2-8d1143ca2f9d"
        }
      }, {
        "item": {
          "reference": "urn:uuid:edec3c58-c3b1-49e9-a0e0-bef004f6380d"
        }
      }, {
        "item": {
          "reference": "urn:uuid:3bd32535-7323-4774-82d9-d60d15b6cd65"
        }
      }, {
        "item": {
          "reference": "urn:uuid:88ebb58f-458f-4272-9ace-a9b574cb87d4"
        }
      }, {
        "item": {
          "reference": "urn:uuid:e698402d-cc75-4eee-bf2f-861aff739bd8"
        }
      }, {
        "item": {
          "reference": "urn:uuid:4650082a-e7a3-49db-80bc-36d9a3a115fc"
        }
      }, {
        "item": {
          "reference": "urn:uuid:e02454fb-8ee3-4b75-964f-d7c0ff38f813"
        }
      }, {
        "item": {
          "reference": "urn:uuid:5708c15d-3239-4158-9ab3-6f973c870b88"
        }
      }, {
        "item": {
          "reference": "urn:uuid:3e2808a9-d813-4d4b-abd7-582387f558bb"
        }
      }, {
        "item": {
          "reference": "urn:uuid:925d83f9-d191-42fc-b720-6a0040c3e6ab"
        }
      }, {
        "item": {
          "reference": "urn:uuid:40344990-e70b-4651-989a-2b4d2ea46918"
        }
      }, {
        "item": {
          "reference": "urn:uuid:2668c7a4-7079-40c3-b3d7-87e07dcf0033"
        }
      }, {
        "item": {
          "reference": "urn:uuid:584df5c5-2db1-4011-ae83-87e7dcb2a122"
        }
      }, {
        "item": {
          "reference": "urn:uuid:62a3a9a3-f95e-4c3e-9d68-a72249d67ee6"
        }
      }, {
        "item": {
          "reference": "urn:uuid:cf03140a-1aab-4528-8d22-a1a1fb9c0e61"
        }
      }, {
        "item": {
          "reference": "urn:uuid:531ca78a-0586-413a-aa04-6d21d8f0f280"
        }
      }, {
        "item": {
          "reference": "urn:uuid:2d20c9e2-1033-4e96-bea0-f6ca71d47ac0"
        }
      }, {
        "item": {
          "reference": "urn:uuid:fbc6ff21-e849-48cd-9482-b537ad82b9aa"
        }
      }, {
        "item": {
          "reference": "urn:uuid:e2983c2c-a751-4a20-9f2e-3459b07a5cdb"
        }
      }, {
        "item": {
          "reference": "urn:uuid:d38e512f-3f81-4acb-9644-f21695716738"
        }
      }, {
        "item": {
          "reference": "urn:uuid:c61d74f9-1654-431d-a3bc-5b5e45206eac"
        }
      }, {
        "item": {
          "reference": "urn:uuid:86503486-4cef-410a-8716-380e1abe9a35"
        }
      }, {
        "item": {
          "reference": "urn:uuid:13641abf-5a48-4016-b820-f71e48e5bbed"
        }
      }, {
        "item": {
          "reference": "urn:uuid:a3005767-9581-4c6f-a1d9-0a35ce510dbe"
        }
      }, {
        "item": {
          "reference": "urn:uuid:59a17dc9-ceb8-4adb-8bd5-ebcb777b3c8a"
        }
      }, {
        "item": {
          "reference": "urn:uuid:922b7a9b-351c-42ed-8d77-29cd1124a698"
        }
      }, {
        "item": {
          "reference": "urn:uuid:2fcd196d-d7eb-4738-a7f3-ded6673f3b56"
        }
      }, {
        "item": {
          "reference": "urn:uuid:75479724-e2ca-4c76-982a-5aa553d1df56"
        }
      }, {
        "item": {
          "reference": "urn:uuid:d4c990fa-1945-403f-b1cd-caf808d60613"
        }
      }, {
        "item": {
          "reference": "urn:uuid:152f6a0e-9d12-4ab5-8876-7dd0ea7e9375"
        }
      }, {
        "item": {
          "reference": "urn:uuid:b7a28613-7c85-404b-bf7f-6e1fd791192f"
        }
      }, {
        "item": {
          "reference": "urn:uuid:a8f525a7-fee1-4400-9e4c-7f7257b15210"
        }
      }, {
        "item": {
          "reference": "urn:uuid:5125bd42-5ee7-409f-811e-543de6692789"
        }
      }, {
        "item": {
          "reference": "urn:uuid:d1c787c3-6f63-4719-b95d-3d173ac5045c"
        }
      }, {
        "item": {
          "reference": "urn:uuid:16901023-1ac1-417f-81d3-3c2203b85add"
        }
      }, {
        "item": {
          "reference": "urn:uuid:bad873e4-ed02-421c-87bd-5d4b5fb21f3f"
        }
      }, {
        "item": {
          "reference": "urn:uuid:fd25019a-8739-4bb1-98ba-a290873215e1"
        }
      }, {
        "item": {
          "reference": "urn:uuid:acee0370-d92e-40c9-9df3-aecbe896fdd8"
        }
      }, {
        "item": {
          "reference": "urn:uuid:1d518ee9-13e3-4fd5-a768-5820f46c1fbe"
        }
      }, {
        "item": {
          "reference": "urn:uuid:57fa0498-5a4a-4ba7-9588-e296879dbbb1"
        }
      }, {
        "item": {
          "reference": "urn:uuid:b42b2f0f-4b4e-4c65-92ec-a8cec6686642"
        }
      }, {
        "item": {
          "reference": "urn:uuid:d088c283-b8f5-4bf0-bd09-8f17d406a8e8"
        }
      }, {
        "item": {
          "reference": "urn:uuid:7ae6b8a1-0a28-44f1-a506-7262eb757b0b"
        }
      }, {
        "item": {
          "reference": "urn:uuid:aba35a9b-9421-42d4-a7ad-557a30d2d1d6"
        }
      }, {
        "item": {
          "reference": "urn:uuid:3817dfdc-a29d-49ed-91e0-928636974cdb"
        }
      }, {
        "item": {
          "reference": "urn:uuid:05c0b583-c680-48c4-823e-aa7151ba7537"
        }
      }, {
        "item": {
          "reference": "urn:uuid:f4c9c642-d878-43dc-87db-214c0030f14f"
        }
      }, {
        "item": {
          "reference": "urn:uuid:972348ba-d0f7-4cd1-bbe2-a4336c2d4f30"
        }
      }, {
        "item": {
          "reference": "urn:uuid:953491e2-3bd8-41ee-b7c4-40f5958a6e25"
        }
      }, {
        "item": {
          "reference": "urn:uuid:2121dd6b-3225-4d36-bc43-6ce2f627ecf8"
        }
      }, {
        "item": {
          "reference": "urn:uuid:c014c32d-8bf3-4149-b66c-3c4ea2a0853b"
        }
      }, {
        "item": {
          "reference": "urn:uuid:8a423eb1-b381-4c12-babd-f48f77cee447"
        }
      }, {
        "item": {
          "reference": "urn:uuid:c64e9722-a880-429e-92cd-9ceb0c5b3032"
        }
      }, {
        "item": {
          "reference": "urn:uuid:9fed5a9d-2bd0-43db-aafe-751fab9e1319"
        }
      }, {
        "item": {
          "reference": "urn:uuid:6b445fda-461b-42f8-ac32-54d8f2c9ffad"
        }
      }, {
        "item": {
          "reference": "urn:uuid:931a742c-acae-44d4-b9ad-845d70dce221"
        }
      }, {
        "item": {
          "reference": "urn:uuid:29cf2b4b-a0c4-4d79-84ee-f4d8ccf108a8"
        }
      }, {
        "item": {
          "reference": "urn:uuid:fb40e350-b3ce-4139-b3b9-d34005d38dc5"
        }
      }, {
        "item": {
          "reference": "urn:uuid:5e239bf7-5a4a-41f7-9dcc-381304e391a5"
        }
      }, {
        "item": {
          "reference": "urn:uuid:28e4b3b6-c627-478b-aa14-2c66105dcd49"
        }
      }, {
        "item": {
          "reference": "urn:uuid:bc95be51-872e-469f-9e49-fb62da95049f"
        }
      }, {
        "item": {
          "reference": "urn:uuid:1da9fa72-a423-49c1-bf8a-96e7ca21e9d6"
        }
      }, {
        "item": {
          "reference": "urn:uuid:5de7aac4-e36e-492f-aad0-2539df1a32ec"
        }
      }, {
        "item": {
          "reference": "urn:uuid:c85af349-91a2-41b5-b615-16cd45889d5d"
        }
      }, {
        "item": {
          "reference": "urn:uuid:7d6f6f5e-e4b4-4e69-bbf5-3ff340c32e32"
        }
      }, {
        "item": {
          "reference": "urn:uuid:2f7329a7-88e2-4cb7-87cd-10532e2430f7"
        }
      }, {
        "item": {
          "reference": "urn:uuid:186cad7e-db1d-4112-88bd-543d043be6e5"
        }
      }, {
        "item": {
          "reference": "urn:uuid:da1bf57c-44fe-4472-9b1e-b19fb9b4c655"
        }
      }, {
        "item": {
          "reference": "urn:uuid:d934aef8-b919-432d-abe7-3132e2aa9974"
        }
      }, {
        "item": {
          "reference": "urn:uuid:2c122583-0ffc-4c2c-b1cc-1a9f72947aac"
        }
      }, {
        "item": {
          "reference": "urn:uuid:ae4ec30a-07bf-489e-9d38-27e86c034750"
        }
      }, {
        "item": {
          "reference": "urn:uuid:0308defa-c7b2-484c-a746-0806da2e1685"
        }
      }, {
        "item": {
          "reference": "urn:uuid:40c159a0-10d9-4308-a09a-0fa41cf33641"
        }
      }, {
        "item": {
          "reference": "urn:uuid:9d8562a6-524f-431b-b66a-1e9b9f496629"
        }
      }, {
        "item": {
          "reference": "urn:uuid:4d06e318-b7cf-4633-8875-0e02e3e5101f"
        }
      }, {
        "item": {
          "reference": "urn:uuid:6b720aeb-ae78-4d9d-a19a-6a9024aab5d1"
        }
      }, {
        "item": {
          "reference": "urn:uuid:3bc3dd7b-9ce9-41ef-952f-cd5dc70ce807"
        }
      }, {
        "item": {
          "reference": "urn:uuid:071a7387-0869-47ab-8686-f470f622cfcb"
        }
      }, {
        "item": {
          "reference": "urn:uuid:de0fedf7-df2d-4431-9d0f-cb050640f575"
        }
      }, {
        "item": {
          "reference": "urn:uuid:3ffa410f-2915-4cb3-a6ed-689e4290b5be"
        }
      }, {
        "item": {
          "reference": "urn:uuid:72b1f371-fa24-43c7-94b8-030825dc6aad"
        }
      }, {
        "item": {
          "reference": "urn:uuid:67f920df-67ab-4223-80bb-8e9edc192d56"
        }
      }, {
        "item": {
          "reference": "urn:uuid:6950aedb-362d-4b5d-a495-3cf24290e39b"
        }
      }, {
        "item": {
          "reference": "urn:uuid:8fc55693-b576-4dbd-ba22-f247bdfe0488"
        }
      }, {
        "item": {
          "reference": "urn:uuid:d37aae81-5ff9-4314-adb1-44819d304262"
        }
      }, {
        "item": {
          "reference": "urn:uuid:543f0213-64ee-4ac4-bc42-25f453861624"
        }
      }, {
        "item": {
          "reference": "urn:uuid:1192461c-3e99-42c9-88b6-ac08a8715f09"
        }
      }, {
        "item": {
          "reference": "urn:uuid:147e0dc0-0219-4eb0-9513-d08673730955"
        }
      }, {
        "item": {
          "reference": "urn:uuid:c71abc80-edce-4694-8990-fcc1860bf35d"
        }
      }, {
        "item": {
          "reference": "urn:uuid:2ba7dc95-51fe-4dff-b59a-5d3c63245c86"
        }
      }, {
        "item": {
          "reference": "urn:uuid:52f7f288-ad5d-4c1f-ad7f-d77e50c2376a"
        }
      }, {
        "item": {
          "reference": "urn:uuid:74a843ae-ffa7-45c3-8d81-6886cb9fc4bb"
        }
      }, {
        "item": {
          "reference": "urn:uuid:908a186a-6f23-4f83-b34e-c03fe0dd1255"
        }
      }, {
        "item": {
          "reference": "urn:uuid:bc3aa658-0ce9-4ef7-b167-3da41e38bfba"
        }
      }, {
        "item": {
          "reference": "urn:uuid:9f56ade5-e7d9-4aae-aedf-4819f5c36491"
        }
      }, {
        "item": {
          "reference": "urn:uuid:124f4b36-4163-4510-8db2-77790d13c79e"
        }
      }, {
        "item": {
          "reference": "urn:uuid:eb8f744b-e8a2-49b2-acc2-25af47e06209"
        }
      }, {
        "item": {
          "reference": "urn:uuid:d5b8113a-c30a-4fbe-8945-fc5b003f1e51"
        }
      }, {
        "item": {
          "reference": "urn:uuid:cb65a1c9-2a80-4002-bf23-46b8c9b1b5b3"
        }
      }, {
        "item": {
          "reference": "urn:uuid:fa74f3be-1d1e-41a3-8d00-8f105854a7a5"
        }
      }, {
        "item": {
          "reference": "urn:uuid:d0ab7c63-7180-4f58-8e5d-276074b2cff9"
        }
      }, {
        "item": {
          "reference": "urn:uuid:3075557a-d496-4ebe-b7eb-315363e3ccbf"
        }
      }, {
        "item": {
          "reference": "urn:uuid:e824a8df-5b16-42ab-b614-6b2941b1640a"
        }
      }, {
        "item": {
          "reference": "urn:uuid:45d5d771-2d0d-42cf-9ec3-68063b904b55"
        }
      }, {
        "item": {
          "reference": "urn:uuid:21238952-52f4-4914-959c-4a49ddb5c60d"
        }
      }, {
        "item": {
          "reference": "urn:uuid:d495f92f-120d-4583-83ed-e76b6ca39b36"
        }
      }, {
        "item": {
          "reference": "urn:uuid:9a203544-3404-4f1c-8116-50db75be71d8"
        }
      }, {
        "item": {
          "reference": "urn:uuid:ca9e02af-840b-404b-b1f1-69e25d85155b"
        }
      }, {
        "item": {
          "reference": "urn:uuid:5fb9df24-284e-4cd6-a141-0f688c110f68"
        }
      }, {
        "item": {
          "reference": "urn:uuid:3318f81c-08b1-43ba-be71-727fe3b82ad3"
        }
      }, {
        "item": {
          "reference": "urn:uuid:5e85df82-1c2a-4087-a1df-d1a5838e7fa1"
        }
      }, {
        "item": {
          "reference": "urn:uuid:7e16131a-b805-4442-ade7-92ef3236ca65"
        }
      }, {
        "item": {
          "reference": "urn:uuid:b6293771-68dd-4f37-81eb-1d4060389d0f"
        }
      }, {
        "item": {
          "reference": "urn:uuid:f9b747db-dc06-443b-a78f-47c30cf913bb"
        }
      }, {
        "item": {
          "reference": "urn:uuid:98beb51c-f2fe-4e7a-bdab-7d50085e0e6d"
        }
      }, {
        "item": {
          "reference": "urn:uuid:39921a0a-f5c7-4382-81c2-aa7e63be5063"
        }
      }, {
        "item": {
          "reference": "urn:uuid:e0ed282a-b4fb-492a-82b6-8ab4aae5977e"
        }
      }, {
        "item": {
          "reference": "urn:uuid:8e750365-41a3-4017-ab89-a9e768b60614"
        }
      }, {
        "item": {
          "reference": "urn:uuid:4b42ff48-cc8e-4a14-8af0-af8b9eefb6f4"
        }
      }, {
        "item": {
          "reference": "urn:uuid:45875114-6c11-4cd6-8e5a-ddeeddcc5b85"
        }
      }, {
        "item": {
          "reference": "urn:uuid:b5c06439-0b5e-4c23-80d5-8ca88189cf66"
        }
      }, {
        "item": {
          "reference": "urn:uuid:bf517175-c92e-4c75-8b81-cf62c9d73a18"
        }
      }, {
        "item": {
          "reference": "urn:uuid:9e4f7431-ee12-4e3d-aef2-6051fda90c06"
        }
      }, {
        "item": {
          "reference": "urn:uuid:6ad21fbe-ccb3-4ba7-af29-7897aa1f8f85"
        }
      }, {
        "item": {
          "reference": "urn:uuid:3fb8d4f3-8c0e-491c-9a32-acd982d119e7"
        }
      }, {
        "item": {
          "reference": "urn:uuid:8c2dae81-4e4a-4294-be7f-bb62f767b8ea"
        }
      }, {
        "item": {
          "reference": "urn:uuid:8ea235ae-8438-46ea-ab86-0c6e47ac142c"
        }
      }, {
        "item": {
          "reference": "urn:uuid:07c153fb-4ac1-402f-99e4-9d23454a4c5e"
        }
      }, {
        "item": {
          "reference": "urn:uuid:7cb6f689-2566-41ec-be28-7281b0983a0b"
        }
      }, {
        "item": {
          "reference": "urn:uuid:ff798944-5c93-4006-a31c-357ebb4b7cee"
        }
      }, {
        "item": {
          "reference": "urn:uuid:6a0b7d0d-3002-4fab-b708-23b2b7e8e57c"
        }
      }, {
        "item": {
          "reference": "urn:uuid:009da09d-8986-4c76-ab43-2c192ee44df7"
        }
      } ]
    }
  } ]
}