{
  "resourceType": "Bundle",
  "identifier": {
    "type": {
      "text": "ClinicalDocument VersionNumber"
    },
    "value": "1"
  },
  "type": "message",
  "entry": [ {
    "fullUrl": "urn:uuid:2F182787-CA39-46F8-9B1C-8E77F3050067",
    "resource": {
      "resourceType": "MessageHeader",
      "id": "2F182787-CA39-46F8-9B1C-8E77F3050067",
      "event": {
        "system": "https://fhir.nhs.uk/STU3/CodeSystem/EventType-1",
        "code": "referral-1",
        "display": "Referral"
      },
      "destination": [ {
        "endpoint": "urn:nhs-uk:addressing:ods:FDH68RPX:DOSServiceID:2000038407"
      } ],
      "timestamp": "2021-04-06T11:29:27.000+00:00",
      "source": {
        "name": "NHS 111 Adaptor",
        "endpoint": "http://localhost:8080/report"
      },
      "reason": {
        "coding": [ {
          "system": "urn:nhs-itk:ns:201005:interaction",
          "code": "urn:nhs-itk:interaction:primaryOutofHourRecipientNHS111CDADocument-v2-0"
        } ]
      }
    }
  }, {
    "fullUrl": "urn:uuid:5286f78c-f196-4d24-b7a4-b3246a450061",
    "resource": {
      "resourceType": "Encounter",
      "id": "5286f78c-f196-4d24-b7a4-b3246a450061",
      "identifier": [ {
        "system": "2.16.840.1.113883.2.1.3.2.4.18.34",
        "value": "CAC4BF79-AF64-47E2-8162-53438279E2F9"
      }, {
        "system": "2.16.840.1.113883.2.1.3.2.4.18.35",
        "value": "59263"
      }, {
        "system": "2.16.840.1.113883.2.1.3.2.4.18.49",
        "value": "CAC4BF79-AF64-47E2-8162-53438279E2F9"
      } ],
      "status": "finished",
      "type": [ {
        "text": "111 Encounter Referral"
      } ],
      "subject": {
        "reference": "urn:uuid:10d2b1c9-b9eb-40c2-b083-8c10e5efb3b8"
      },
      "participant": [ {
        "type": [ {
          "coding": [ {
            "system": "http://hl7.org/fhir/ValueSet/encounter-participant-type",
            "code": "PPRF",
            "display": "Author"
          } ]
        } ],
        "individual": {
          "reference": "urn:uuid:49fc785e-45a0-4489-9dc4-9333be1c5dbe"
        }
      }, {
        "type": [ {
          "text": "Informant"
        } ],
        "individual": {
          "reference": "urn:uuid:481d2be0-31bf-4a09-9472-63f786975a3a"
        }
      }, {
        "type": [ {
          "coding": [ {
            "system": "http://hl7.org/fhir/ValueSet/encounter-participant-type",
            "code": "ATND",
            "display": "Responsible Party"
          } ]
        } ],
        "individual": {
          "reference": "urn:uuid:853b5805-cb83-44e7-b1f4-6152b56a8797"
        }
      } ],
      "period": {
        "start": "2021-04-06T11:29:27+00:00"
      },
      "location": [ {
        "location": {
          "reference": "urn:uuid:82f3ca5a-b256-46a1-aaf7-8507dfdab3ba"
        },
        "status": "completed"
      } ],
      "serviceProvider": {
        "reference": "urn:uuid:4aaf55ba-4b2c-4cd0-905a-f97800b2b64a"
      }
    }
  }, {
    "fullUrl": "urn:uuid:4aaf55ba-4b2c-4cd0-905a-f97800b2b64a",
    "resource": {
      "resourceType": "Organization",
      "id": "4aaf55ba-4b2c-4cd0-905a-f97800b2b64a",
      "active": true,
      "type": [ {
        "text": "CST"
      } ],
      "name": "SCAS111"
    }
  }, {
    "fullUrl": "urn:uuid:49fc785e-45a0-4489-9dc4-9333be1c5dbe",
    "resource": {
      "resourceType": "Practitioner",
      "id": "49fc785e-45a0-4489-9dc4-9333be1c5dbe",
      "active": true,
      "name": [ {
        "use": "official",
        "family": "Hadfield",
        "given": [ "Ryan" ]
      } ]
    }
  }, {
    "fullUrl": "urn:uuid:481d2be0-31bf-4a09-9472-63f786975a3a",
    "resource": {
      "resourceType": "RelatedPerson",
      "id": "481d2be0-31bf-4a09-9472-63f786975a3a",
      "active": true,
      "patient": {
        "reference": "urn:uuid:10d2b1c9-b9eb-40c2-b083-8c10e5efb3b8"
      },
      "relationship": {
        "coding": [ {
          "system": "2.16.840.1.113883.2.1.3.2.4.16.45",
          "code": "99",
          "display": "Not specified"
        } ]
      },
      "name": [ {
        "text": "Test Caller (Carer - Home)"
      } ],
      "telecom": [ {
        "system": "phone",
        "value": "tel:07777888888",
        "use": "home"
      } ],
      "gender": "unknown"
    }
  }, {
    "fullUrl": "urn:uuid:853b5805-cb83-44e7-b1f4-6152b56a8797",
    "resource": {
      "resourceType": "Practitioner",
      "id": "853b5805-cb83-44e7-b1f4-6152b56a8797",
      "active": true,
      "name": [ {
        "use": "official",
        "family": "Black",
        "given": [ "John" ]
      } ]
    }
  }, {
    "fullUrl": "urn:uuid:82f3ca5a-b256-46a1-aaf7-8507dfdab3ba",
    "resource": {
      "resourceType": "Location",
      "id": "82f3ca5a-b256-46a1-aaf7-8507dfdab3ba",
      "name": "Incident Location",
      "address": {
        "type": "physical",
        "line": [ "12A", "Otter Close", "Bishopstoke", "Eastleigh", "Hampshire" ],
        "postalCode": "SO50 8NF"
      }
    }
  }, {
    "fullUrl": "urn:uuid:10d2b1c9-b9eb-40c2-b083-8c10e5efb3b8",
    "resource": {
      "resourceType": "Patient",
      "id": "10d2b1c9-b9eb-40c2-b083-8c10e5efb3b8",
      "identifier": [ {
        "extension": [ {
          "url": "https://fhir.hl7.org.uk/STU3/StructureDefinition/Extension-CareConnect-NHSNumberVerificationStatus-1",
          "valueCodeableConcept": {
            "coding": [ {
              "system": "https://fhir.hl7.org.uk/STU3/StructureDefinition/Extension-CareConnect-NHSNumberVerificationStatus-1",
              "code": "02"
            } ]
          }
        } ],
        "system": "https://fhir.nhs.uk/Id/nhs-number",
        "value": "0000000000"
      } ],
      "active": true,
      "name": [ {
        "use": "official",
        "family": "Testone",
        "given": [ "Test" ]
      } ],
      "telecom": [ {
        "system": "phone",
        "value": "tel:000000000000",
        "use": "home"
      }, {
        "system": "phone",
        "value": "tel:01111111111",
        "use": "mobile"
      }, {
        "system": "phone",
        "value": "tel:000000000000"
      } ],
      "gender": "female",
      "birthDate": "1980-01-01",
      "address": [ {
        "use": "home",
        "line": [ "Southern House", "Sparrowgrove", "Otterbourne", "Winchester", "Hampshire" ],
        "postalCode": "SO21 2RU"
      }, {
        "type": "physical",
        "line": [ "12A", "Otter Close", "Bishopstoke", "Eastleigh", "Hampshire" ],
        "postalCode": "SO50 8NF"
      } ]
    }
  }, {
    "fullUrl": "urn:uuid:2b7c15bc-aa22-4267-a924-124487d66741",
    "resource": {
      "resourceType": "HealthcareService",
      "id": "2b7c15bc-aa22-4267-a924-124487d66741",
      "active": true,
      "providedBy": {
        "reference": "urn:uuid:37000d2b-bb4b-489b-8652-4472dc15bb38"
      },
      "location": [ {
        "reference": "urn:uuid:a8fc3573-6919-4a3b-870a-d21ef9f38cc3"
      } ],
      "name": "Lloyds Pharmacy, Stokewood Close, Fair Oak, Eastleigh"
    }
  }, {
    "fullUrl": "urn:uuid:a8fc3573-6919-4a3b-870a-d21ef9f38cc3",
    "resource": {
      "resourceType": "Location",
      "id": "a8fc3573-6919-4a3b-870a-d21ef9f38cc3",
      "managingOrganization": {
        "reference": "urn:uuid:37000d2b-bb4b-489b-8652-4472dc15bb38"
      }
    }
  }, {
    "fullUrl": "urn:uuid:37000d2b-bb4b-489b-8652-4472dc15bb38",
    "resource": {
      "resourceType": "Organization",
      "id": "37000d2b-bb4b-489b-8652-4472dc15bb38",
      "identifier": [ {
        "value": "FDH68RPX"
      } ],
      "type": [ {
        "coding": [ {
          "code": "PRCP",
          "display": "Lloyds Pharmacy, Stokewood Close, Fair Oak, Eastleigh"
        } ]
      } ],
      "name": "Lloyds Pharmacy, Stokewood Close, Fair Oak, Eastleigh"
    }
  }, {
    "fullUrl": "urn:uuid:3dd9cb9f-9dd3-4f64-9cb9-ff7f875b1839",
    "resource": {
      "resourceType": "ReferralRequest",
      "id": "3dd9cb9f-9dd3-4f64-9cb9-ff7f875b1839",
      "status": "active",
      "intent": "plan",
      "priority": "routine",
      "subject": {
        "reference": "urn:uuid:10d2b1c9-b9eb-40c2-b083-8c10e5efb3b8"
      },
      "context": {
        "reference": "urn:uuid:5286f78c-f196-4d24-b7a4-b3246a450061"
      },
      "occurrencePeriod": {
        "start": "2021-10-01T07:34:00+00:00",
        "end": "2021-10-01T08:34:00+00:00"
      },
      "authoredOn": "2021-04-06T11:29:25+00:00",
      "requester": {
        "agent": {
          "reference": "urn:uuid:11dcd180-7d2f-40be-801a-874ec476bb48"
        },
        "onBehalfOf": {
          "reference": "urn:uuid:4aaf55ba-4b2c-4cd0-905a-f97800b2b64a"
        }
      },
      "recipient": [ {
        "reference": "urn:uuid:2b7c15bc-aa22-4267-a924-124487d66741"
      } ],
      "reasonReference": [ {
        "reference": "urn:uuid:19030bad-605d-48df-b7f0-b55b5cb9423c"
      } ],
      "supportingInfo": [ {
        "reference": "urn:uuid:30e9d328-ac3c-4060-b27e-b4bd51700ba5"
      } ]
    }
  }, {
    "fullUrl": "urn:uuid:30e9d328-ac3c-4060-b27e-b4bd51700ba5",
    "resource": {
      "resourceType": "ProcedureRequest",
      "id": "30e9d328-ac3c-4060-b27e-b4bd51700ba5",
      "status": "active",
      "intent": "plan",
      "priority": "routine",
      "doNotPerform": false,
      "code": {
        "coding": [ {
          "system": "2.16.840.1.113883.2.1.3.2.4.17.325",
          "code": "Dx86",
          "display": "Repeat Prescription required within 12 hours"
        } ]
      },
      "subject": {
        "reference": "urn:uuid:10d2b1c9-b9eb-40c2-b083-8c10e5efb3b8"
      },
      "occurrencePeriod": {
        "start": "2021-10-01T07:34:00+00:00",
        "end": "2021-10-01T08:34:00+00:00"
      },
      "reasonReference": [ {
        "reference": "urn:uuid:19030bad-605d-48df-b7f0-b55b5cb9423c"
      } ]
    }
  }, {
    "fullUrl": "urn:uuid:3ec53523-2488-4fe5-bff5-5679a0ba82a8",
    "resource": {
      "resourceType": "Composition",
      "id": "3ec53523-2488-4fe5-bff5-5679a0ba82a8",
      "identifier": {
        "use": "usual",
        "value": "B66502CD-A9B4-4F3E-83EB-981F572C2C91"
      },
      "status": "final",
      "type": {
        "coding": [ {
          "system": "http://snomed.info/sct",
          "code": "371531000",
          "display": "Report of clinical encounter (record artifact)"
        } ]
      },
      "subject": {
        "reference": "urn:uuid:10d2b1c9-b9eb-40c2-b083-8c10e5efb3b8"
      },
      "encounter": {
        "reference": "urn:uuid:5286f78c-f196-4d24-b7a4-b3246a450061"
      },
      "date": "2021-10-01T07:34:00+00:00",
      "author": [ {
        "reference": "urn:uuid:49fc785e-45a0-4489-9dc4-9333be1c5dbe"
      } ],
      "title": "111 Report",
      "confidentiality": "N",
      "section": [ {
        "section": [ {
          "title": "Patient's Reported Condition",
          "text": {
            "status": "generated",
            "div": "<div xmlns=\"http://www.w3.org/1999/xhtml\">&lt;content&gt;test&lt;/content&gt;\n                                                    &lt;br/&gt;</div>"
          }
        }, {
          "title": "Pathways Disposition",
          "text": {
            "status": "generated",
            "div": "<div xmlns=\"http://www.w3.org/1999/xhtml\">Repeat Prescription required within 12 hours (Dx86)                                         &lt;br/&gt;\n                                                    &lt;br/&gt;                                         Selected service: Lloyds Pharmacy, Stokewood Close, Fair Oak, Eastle&lt;br/&gt;</div>"
          }
        }, {
          "title": "Consultation Summary",
          "text": {
            "status": "generated",
            "div": "<div xmlns=\"http://www.w3.org/1999/xhtml\">Prescription request&lt;br/&gt;Not enough medication until surgery opens&lt;br/&gt;No medication available&lt;br/&gt;Next dose due within next 12 hours&lt;br/&gt;</div>"
          }
        }, {
          "title": "Pathways Assessment",
          "text": {
            "status": "generated",
            "div": "<div xmlns=\"http://www.w3.org/1999/xhtml\">Reason for call menu - continued to next list.&lt;br/&gt;A prescription request was the main reason for the contact.&lt;br/&gt;The main reason for the contact was not a new or worsening illness.&lt;br/&gt;The individual did not have enough medication to last until the surgery next opened.&lt;br/&gt;The medication was suitable for repeat prescribing without further consultation.&lt;br/&gt;The individual had no medication available.&lt;br/&gt;The next dose was due within 12 hours.&lt;br/&gt;Instructions given were: The individual needs a repeat prescription.&lt;br/&gt;Directory of Services referral: Lloyds Pharmacy, Stokewood Close, Fair Oak, Eastleigh&lt;br/&gt;</div>"
          }
        }, {
          "title": "Advice Given",
          "text": {
            "status": "generated",
            "div": "<div xmlns=\"http://www.w3.org/1999/xhtml\">IF THE RECOMMENDED TIMEFRAME FALLS OUTSIDE OPENING HOURS: I will arrange for a clinician to speak to the individual.&lt;br/&gt;\n                                                    &lt;br/&gt;</div>"
          }
        }, {
          "title": "Information And Advice Given"
        }, {
          "title": "Disposition",
          "text": {
            "status": "generated",
            "div": "<div xmlns=\"http://www.w3.org/1999/xhtml\">&lt;content&gt;Repeat Prescription required within 12 hours&lt;br/&gt;\n                                                    &lt;/content&gt;\n                                                    &lt;br/&gt;\n                                                    &lt;br/&gt;</div>"
          }
        } ]
      }, {
        "title": "CarePlan",
        "entry": [ {
          "reference": "urn:uuid:2ca0b69f-80f0-4bde-b462-748c27beb126"
        } ]
      }, {
        "title": "ReferralRequest",
        "entry": [ {
          "reference": "urn:uuid:3dd9cb9f-9dd3-4f64-9cb9-ff7f875b1839"
        } ]
      }, {
        "title": "QuestionnaireResponse",
        "entry": [ {
          "reference": "urn:uuid:eb0ee63f-f082-4fa9-b199-3dc17cb35edf"
        } ]
      }, {
        "title": "QuestionnaireResponse",
        "entry": [ {
          "reference": "urn:uuid:55436dfd-38d7-4878-8e85-fa174527e94e"
        } ]
      }, {
        "title": "QuestionnaireResponse",
        "entry": [ {
          "reference": "urn:uuid:2bc5a0a2-21aa-404f-8a35-8b8a7ef10d7a"
        } ]
      }, {
        "title": "QuestionnaireResponse",
        "entry": [ {
          "reference": "urn:uuid:68464e05-00d3-4c8a-a3c5-a590a728cafc"
        } ]
      }, {
        "title": "QuestionnaireResponse",
        "entry": [ {
          "reference": "urn:uuid:e7b7f317-566e-40e1-a98b-cedfb63bfd32"
        } ]
      }, {
        "title": "QuestionnaireResponse",
        "entry": [ {
          "reference": "urn:uuid:8b143020-4de1-49c3-979c-ad5fd0828bc1"
        } ]
      }, {
        "title": "QuestionnaireResponse",
        "entry": [ {
          "reference": "urn:uuid:0de53fce-115c-41fe-be7b-68c1a2c22f3e"
        } ]
      }, {
        "title": "QuestionnaireResponse",
        "entry": [ {
          "reference": "urn:uuid:8f62911b-5ae5-4366-9d81-a68fbff1becc"
        } ]
      }, {
        "title": "QuestionnaireResponse",
        "entry": [ {
          "reference": "urn:uuid:fc3224b8-e96e-451d-a813-54788f6af5e6"
        } ]
      }, {
        "title": "QuestionnaireResponse",
        "entry": [ {
          "reference": "urn:uuid:27bb0809-b9bb-4137-8dfa-a1d74f6f7428"
        } ]
      }, {
        "title": "QuestionnaireResponse",
        "entry": [ {
          "reference": "urn:uuid:7074a7ed-575e-465c-b840-c544cb076a02"
        } ]
      }, {
        "title": "QuestionnaireResponse",
        "entry": [ {
          "reference": "urn:uuid:c9805efc-1b44-4c8c-a5de-aa25c9d8525b"
        } ]
      }, {
        "title": "QuestionnaireResponse",
        "entry": [ {
          "reference": "urn:uuid:3e864105-776e-45be-87dd-e3fc24a6aeff"
        } ]
      }, {
        "title": "QuestionnaireResponse",
        "entry": [ {
          "reference": "urn:uuid:05965a1c-9fbb-4455-b7a0-b84c73e596e6"
        } ]
      }, {
        "title": "QuestionnaireResponse",
        "entry": [ {
          "reference": "urn:uuid:93f83b42-62ab-46d8-bad1-f631123f0807"
        } ]
      }, {
        "title": "QuestionnaireResponse",
        "entry": [ {
          "reference": "urn:uuid:8808fdc6-be27-424a-981b-55da83582d83"
        } ]
      }, {
        "title": "QuestionnaireResponse",
        "entry": [ {
          "reference": "urn:uuid:27c60ac6-6e44-49e0-8c0a-79c93d0b7f7a"
        } ]
      }, {
        "title": "QuestionnaireResponse",
        "entry": [ {
          "reference": "urn:uuid:c4d6b639-b5f4-432c-a0e7-969725e8de59"
        } ]
      }, {
        "title": "QuestionnaireResponse",
        "entry": [ {
          "reference": "urn:uuid:4bcb00d8-ba7c-4f83-8721-e6742f2d6901"
        } ]
      }, {
        "title": "QuestionnaireResponse",
        "entry": [ {
          "reference": "urn:uuid:01907459-2c9e-4520-833e-de3074c82342"
        } ]
      }, {
        "title": "QuestionnaireResponse",
        "entry": [ {
          "reference": "urn:uuid:4f4ddf29-b5e8-44ea-9e35-0a667911349f"
        } ]
      }, {
        "title": "QuestionnaireResponse",
        "entry": [ {
          "reference": "urn:uuid:555d9edb-58cc-4bd4-9dba-bbfc55ab0a54"
        } ]
      }, {
        "title": "QuestionnaireResponse",
        "entry": [ {
          "reference": "urn:uuid:22748296-3adf-4534-ac56-7a6832449474"
        } ]
      }, {
        "title": "QuestionnaireResponse",
        "entry": [ {
          "reference": "urn:uuid:8d7f62f2-bc62-4eec-9a0e-569804aee218"
        } ]
      }, {
        "title": "QuestionnaireResponse",
        "entry": [ {
          "reference": "urn:uuid:565b1968-c138-417b-b944-b137700dc93b"
        } ]
      }, {
        "title": "QuestionnaireResponse",
        "entry": [ {
          "reference": "urn:uuid:775a6cc7-b119-4a5f-8427-9ce70adfaea6"
        } ]
      }, {
        "title": "QuestionnaireResponse",
        "entry": [ {
          "reference": "urn:uuid:f0d247bc-5201-4e24-95ee-34ad23f454d2"
        } ]
      }, {
        "title": "QuestionnaireResponse",
        "entry": [ {
          "reference": "urn:uuid:aef06e6a-19dc-42d6-8465-2044b5ed70d3"
        } ]
      }, {
        "title": "QuestionnaireResponse",
        "entry": [ {
          "reference": "urn:uuid:bc64718a-057a-4adc-ac51-b5ee47080a8e"
        } ]
      }, {
        "title": "QuestionnaireResponse",
        "entry": [ {
          "reference": "urn:uuid:5baee610-a912-423d-abce-5886c1b36ca0"
        } ]
      }, {
        "title": "QuestionnaireResponse",
        "entry": [ {
          "reference": "urn:uuid:ccb108c5-d6fd-4c88-8fab-51da5948638f"
        } ]
      }, {
        "title": "QuestionnaireResponse",
        "entry": [ {
          "reference": "urn:uuid:a2fe900f-66ff-4384-a570-0f909b50d60f"
        } ]
      }, {
        "title": "QuestionnaireResponse",
        "entry": [ {
          "reference": "urn:uuid:3b7cd737-7cad-4542-a6d0-bc74b2ecb7b7"
        } ]
      }, {
        "title": "QuestionnaireResponse",
        "entry": [ {
          "reference": "urn:uuid:1c8eddda-817e-4f16-8ae5-ef91a6d07ec2"
        } ]
      }, {
        "title": "QuestionnaireResponse",
        "entry": [ {
          "reference": "urn:uuid:898c2b92-d5bc-4df0-994d-a1da6399107d"
        } ]
      }, {
        "title": "QuestionnaireResponse",
        "entry": [ {
          "reference": "urn:uuid:6307e5b9-5d4a-4349-a8af-f8deab4992f6"
        } ]
      }, {
        "title": "QuestionnaireResponse",
        "entry": [ {
          "reference": "urn:uuid:637b21f5-c676-46e3-ae42-6e610f9b6db6"
        } ]
      }, {
        "title": "QuestionnaireResponse",
        "entry": [ {
          "reference": "urn:uuid:95eeed69-0f2a-4dba-8fff-5a91d846aa1d"
        } ]
      }, {
        "title": "QuestionnaireResponse",
        "entry": [ {
          "reference": "urn:uuid:871cba62-cded-4bb9-93bd-f27b402632c2"
        } ]
      }, {
        "title": "QuestionnaireResponse",
        "entry": [ {
          "reference": "urn:uuid:6bd05c36-de38-4703-9c03-549f25fb39d6"
        } ]
      }, {
        "title": "QuestionnaireResponse",
        "entry": [ {
          "reference": "urn:uuid:fec23653-d3d6-4857-9190-072126b00bf9"
        } ]
      }, {
        "title": "QuestionnaireResponse",
        "entry": [ {
          "reference": "urn:uuid:7f51a172-924d-4e35-a8d5-2f1cd5ad5c51"
        } ]
      }, {
        "title": "QuestionnaireResponse",
        "entry": [ {
          "reference": "urn:uuid:dacc39ad-b390-4244-a493-70b403720cb4"
        } ]
      }, {
        "title": "QuestionnaireResponse",
        "entry": [ {
          "reference": "urn:uuid:690b65d8-ab76-428c-adcd-7bd4c7efeb82"
        } ]
      }, {
        "title": "QuestionnaireResponse",
        "entry": [ {
          "reference": "urn:uuid:5b027ae5-e947-45cf-9d76-7f00312d53a5"
        } ]
      }, {
        "title": "QuestionnaireResponse",
        "entry": [ {
          "reference": "urn:uuid:7476f993-2b31-4e64-b571-5a68aa10ac47"
        } ]
      }, {
        "title": "QuestionnaireResponse",
        "entry": [ {
          "reference": "urn:uuid:7419d5cc-b35f-47fb-bb08-b6e2621cf74f"
        } ]
      }, {
        "title": "QuestionnaireResponse",
        "entry": [ {
          "reference": "urn:uuid:b896fae5-a9a1-413e-ae89-05492c4d0658"
        } ]
      }, {
        "title": "QuestionnaireResponse",
        "entry": [ {
          "reference": "urn:uuid:0a7dd7ad-cafc-490e-b981-e4596c40c8e5"
        } ]
      }, {
        "title": "QuestionnaireResponse",
        "entry": [ {
          "reference": "urn:uuid:d509f440-a579-4966-a372-ce26b20c40a1"
        } ]
      }, {
        "title": "QuestionnaireResponse",
        "entry": [ {
          "reference": "urn:uuid:6473370b-f6d7-4fd6-8c7e-1bfe39e4fd2d"
        } ]
      }, {
        "title": "QuestionnaireResponse",
        "entry": [ {
          "reference": "urn:uuid:6906749e-8b65-4dc2-b886-b5d9e301bc80"
        } ]
      }, {
        "title": "QuestionnaireResponse",
        "entry": [ {
          "reference": "urn:uuid:4569e4d3-26ba-49d8-92ea-2bce370aa60e"
        } ]
      }, {
        "title": "QuestionnaireResponse",
        "entry": [ {
          "reference": "urn:uuid:280bfb56-986c-45d5-8616-537df48fddf8"
        } ]
      }, {
        "title": "QuestionnaireResponse",
        "entry": [ {
          "reference": "urn:uuid:2951bde7-fedd-42ce-a2e4-1bc8b3eb08a8"
        } ]
      }, {
        "title": "QuestionnaireResponse",
        "entry": [ {
          "reference": "urn:uuid:a077d62a-9269-4a98-9a28-b193e49a3355"
        } ]
      }, {
        "title": "QuestionnaireResponse",
        "entry": [ {
          "reference": "urn:uuid:d79ee53a-3354-4d8c-b73a-83082a8c9f15"
        } ]
      }, {
        "title": "QuestionnaireResponse",
        "entry": [ {
          "reference": "urn:uuid:bc30bfa0-aabb-4e5a-8443-de89e1954a46"
        } ]
      }, {
        "title": "QuestionnaireResponse",
        "entry": [ {
          "reference": "urn:uuid:1bd8a802-6de4-46fe-a949-5bcc79257e3c"
        } ]
      }, {
        "title": "QuestionnaireResponse",
        "entry": [ {
          "reference": "urn:uuid:a1b24fb2-e1b6-4c31-ab8d-bfecbdd08a99"
        } ]
      }, {
        "title": "QuestionnaireResponse",
        "entry": [ {
          "reference": "urn:uuid:d9c04d32-6b99-4882-912c-420e140783c6"
        } ]
      } ]
    }
  }, {
    "fullUrl": "urn:uuid:2ca0b69f-80f0-4bde-b462-748c27beb126",
    "resource": {
      "resourceType": "CarePlan",
      "id": "2ca0b69f-80f0-4bde-b462-748c27beb126",
      "status": "completed",
      "intent": "plan",
      "title": "Information And Advice Given",
      "subject": {
        "reference": "urn:uuid:10d2b1c9-b9eb-40c2-b083-8c10e5efb3b8"
      },
      "context": {
        "reference": "urn:uuid:5286f78c-f196-4d24-b7a4-b3246a450061"
      },
      "period": {
        "start": "2021-04-06T11:29:27+00:00"
      },
      "addresses": [ {
        "reference": "urn:uuid:19030bad-605d-48df-b7f0-b55b5cb9423c"
      } ]
    }
  }, {
    "fullUrl": "urn:uuid:66e1917c-4931-4f2f-aa45-544cadaea689",
    "resource": {
      "resourceType": "Consent",
      "id": "66e1917c-4931-4f2f-aa45-544cadaea689",
      "identifier": {
        "use": "usual",
        "value": "B66502CD-A9B4-4F3E-83EB-981F572C2C91"
      },
      "status": "active",
      "patient": {
        "reference": "urn:uuid:10d2b1c9-b9eb-40c2-b083-8c10e5efb3b8"
      },
      "period": {
        "start": "2021-04-06T11:29:27+00:00"
      },
      "consentingParty": [ {
        "reference": "urn:uuid:10d2b1c9-b9eb-40c2-b083-8c10e5efb3b8"
      } ],
      "action": [ {
        "coding": [ {
          "system": "http://snomed.info/sct",
          "code": "425691002",
          "display": "Consent given for electronic record sharing"
        } ],
        "text": "Consent given for electronic record sharing"
      } ],
      "organization": [ {
        "reference": "urn:uuid:4aaf55ba-4b2c-4cd0-905a-f97800b2b64a"
      } ],
      "policyRule": "http://hl7.org/fhir/ConsentPolicy/opt-out",
      "data": [ {
        "meaning": "related",
        "reference": {
          "reference": "urn:uuid:5286f78c-f196-4d24-b7a4-b3246a450061"
        }
      } ]
    }
  }, {
    "fullUrl": "urn:uuid:19030bad-605d-48df-b7f0-b55b5cb9423c",
    "resource": {
      "resourceType": "Condition",
      "id": "19030bad-605d-48df-b7f0-b55b5cb9423c",
      "clinicalStatus": "active",
      "verificationStatus": "unknown",
      "subject": {
        "reference": "urn:uuid:10d2b1c9-b9eb-40c2-b083-8c10e5efb3b8"
      },
      "context": {
        "reference": "urn:uuid:5286f78c-f196-4d24-b7a4-b3246a450061"
      },
      "evidence": [ {
        "detail": [ {
          "reference": "urn:uuid:eb0ee63f-f082-4fa9-b199-3dc17cb35edf"
        } ]
      }, {
        "detail": [ {
          "reference": "urn:uuid:55436dfd-38d7-4878-8e85-fa174527e94e"
        } ]
      }, {
        "detail": [ {
          "reference": "urn:uuid:2bc5a0a2-21aa-404f-8a35-8b8a7ef10d7a"
        } ]
      }, {
        "detail": [ {
          "reference": "urn:uuid:68464e05-00d3-4c8a-a3c5-a590a728cafc"
        } ]
      }, {
        "detail": [ {
          "reference": "urn:uuid:e7b7f317-566e-40e1-a98b-cedfb63bfd32"
        } ]
      }, {
        "detail": [ {
          "reference": "urn:uuid:8b143020-4de1-49c3-979c-ad5fd0828bc1"
        } ]
      }, {
        "detail": [ {
          "reference": "urn:uuid:0de53fce-115c-41fe-be7b-68c1a2c22f3e"
        } ]
      }, {
        "detail": [ {
          "reference": "urn:uuid:8f62911b-5ae5-4366-9d81-a68fbff1becc"
        } ]
      }, {
        "detail": [ {
          "reference": "urn:uuid:fc3224b8-e96e-451d-a813-54788f6af5e6"
        } ]
      }, {
        "detail": [ {
          "reference": "urn:uuid:27bb0809-b9bb-4137-8dfa-a1d74f6f7428"
        } ]
      }, {
        "detail": [ {
          "reference": "urn:uuid:7074a7ed-575e-465c-b840-c544cb076a02"
        } ]
      }, {
        "detail": [ {
          "reference": "urn:uuid:c9805efc-1b44-4c8c-a5de-aa25c9d8525b"
        } ]
      }, {
        "detail": [ {
          "reference": "urn:uuid:3e864105-776e-45be-87dd-e3fc24a6aeff"
        } ]
      }, {
        "detail": [ {
          "reference": "urn:uuid:05965a1c-9fbb-4455-b7a0-b84c73e596e6"
        } ]
      }, {
        "detail": [ {
          "reference": "urn:uuid:93f83b42-62ab-46d8-bad1-f631123f0807"
        } ]
      }, {
        "detail": [ {
          "reference": "urn:uuid:8808fdc6-be27-424a-981b-55da83582d83"
        } ]
      }, {
        "detail": [ {
          "reference": "urn:uuid:27c60ac6-6e44-49e0-8c0a-79c93d0b7f7a"
        } ]
      }, {
        "detail": [ {
          "reference": "urn:uuid:c4d6b639-b5f4-432c-a0e7-969725e8de59"
        } ]
      }, {
        "detail": [ {
          "reference": "urn:uuid:4bcb00d8-ba7c-4f83-8721-e6742f2d6901"
        } ]
      }, {
        "detail": [ {
          "reference": "urn:uuid:01907459-2c9e-4520-833e-de3074c82342"
        } ]
      }, {
        "detail": [ {
          "reference": "urn:uuid:4f4ddf29-b5e8-44ea-9e35-0a667911349f"
        } ]
      }, {
        "detail": [ {
          "reference": "urn:uuid:555d9edb-58cc-4bd4-9dba-bbfc55ab0a54"
        } ]
      }, {
        "detail": [ {
          "reference": "urn:uuid:22748296-3adf-4534-ac56-7a6832449474"
        } ]
      }, {
        "detail": [ {
          "reference": "urn:uuid:8d7f62f2-bc62-4eec-9a0e-569804aee218"
        } ]
      }, {
        "detail": [ {
          "reference": "urn:uuid:565b1968-c138-417b-b944-b137700dc93b"
        } ]
      }, {
        "detail": [ {
          "reference": "urn:uuid:775a6cc7-b119-4a5f-8427-9ce70adfaea6"
        } ]
      }, {
        "detail": [ {
          "reference": "urn:uuid:f0d247bc-5201-4e24-95ee-34ad23f454d2"
        } ]
      }, {
        "detail": [ {
          "reference": "urn:uuid:aef06e6a-19dc-42d6-8465-2044b5ed70d3"
        } ]
      }, {
        "detail": [ {
          "reference": "urn:uuid:bc64718a-057a-4adc-ac51-b5ee47080a8e"
        } ]
      }, {
        "detail": [ {
          "reference": "urn:uuid:5baee610-a912-423d-abce-5886c1b36ca0"
        } ]
      }, {
        "detail": [ {
          "reference": "urn:uuid:ccb108c5-d6fd-4c88-8fab-51da5948638f"
        } ]
      }, {
        "detail": [ {
          "reference": "urn:uuid:a2fe900f-66ff-4384-a570-0f909b50d60f"
        } ]
      }, {
        "detail": [ {
          "reference": "urn:uuid:3b7cd737-7cad-4542-a6d0-bc74b2ecb7b7"
        } ]
      }, {
        "detail": [ {
          "reference": "urn:uuid:1c8eddda-817e-4f16-8ae5-ef91a6d07ec2"
        } ]
      }, {
        "detail": [ {
          "reference": "urn:uuid:898c2b92-d5bc-4df0-994d-a1da6399107d"
        } ]
      }, {
        "detail": [ {
          "reference": "urn:uuid:6307e5b9-5d4a-4349-a8af-f8deab4992f6"
        } ]
      }, {
        "detail": [ {
          "reference": "urn:uuid:637b21f5-c676-46e3-ae42-6e610f9b6db6"
        } ]
      }, {
        "detail": [ {
          "reference": "urn:uuid:95eeed69-0f2a-4dba-8fff-5a91d846aa1d"
        } ]
      }, {
        "detail": [ {
          "reference": "urn:uuid:871cba62-cded-4bb9-93bd-f27b402632c2"
        } ]
      }, {
        "detail": [ {
          "reference": "urn:uuid:6bd05c36-de38-4703-9c03-549f25fb39d6"
        } ]
      }, {
        "detail": [ {
          "reference": "urn:uuid:fec23653-d3d6-4857-9190-072126b00bf9"
        } ]
      }, {
        "detail": [ {
          "reference": "urn:uuid:7f51a172-924d-4e35-a8d5-2f1cd5ad5c51"
        } ]
      }, {
        "detail": [ {
          "reference": "urn:uuid:dacc39ad-b390-4244-a493-70b403720cb4"
        } ]
      }, {
        "detail": [ {
          "reference": "urn:uuid:690b65d8-ab76-428c-adcd-7bd4c7efeb82"
        } ]
      }, {
        "detail": [ {
          "reference": "urn:uuid:5b027ae5-e947-45cf-9d76-7f00312d53a5"
        } ]
      }, {
        "detail": [ {
          "reference": "urn:uuid:7476f993-2b31-4e64-b571-5a68aa10ac47"
        } ]
      }, {
        "detail": [ {
          "reference": "urn:uuid:7419d5cc-b35f-47fb-bb08-b6e2621cf74f"
        } ]
      }, {
        "detail": [ {
          "reference": "urn:uuid:b896fae5-a9a1-413e-ae89-05492c4d0658"
        } ]
      }, {
        "detail": [ {
          "reference": "urn:uuid:0a7dd7ad-cafc-490e-b981-e4596c40c8e5"
        } ]
      }, {
        "detail": [ {
          "reference": "urn:uuid:d509f440-a579-4966-a372-ce26b20c40a1"
        } ]
      }, {
        "detail": [ {
          "reference": "urn:uuid:6473370b-f6d7-4fd6-8c7e-1bfe39e4fd2d"
        } ]
      }, {
        "detail": [ {
          "reference": "urn:uuid:6906749e-8b65-4dc2-b886-b5d9e301bc80"
        } ]
      }, {
        "detail": [ {
          "reference": "urn:uuid:4569e4d3-26ba-49d8-92ea-2bce370aa60e"
        } ]
      }, {
        "detail": [ {
          "reference": "urn:uuid:280bfb56-986c-45d5-8616-537df48fddf8"
        } ]
      }, {
        "detail": [ {
          "reference": "urn:uuid:2951bde7-fedd-42ce-a2e4-1bc8b3eb08a8"
        } ]
      }, {
        "detail": [ {
          "reference": "urn:uuid:a077d62a-9269-4a98-9a28-b193e49a3355"
        } ]
      }, {
        "detail": [ {
          "reference": "urn:uuid:d79ee53a-3354-4d8c-b73a-83082a8c9f15"
        } ]
      }, {
        "detail": [ {
          "reference": "urn:uuid:bc30bfa0-aabb-4e5a-8443-de89e1954a46"
        } ]
      }, {
        "detail": [ {
          "reference": "urn:uuid:1bd8a802-6de4-46fe-a949-5bcc79257e3c"
        } ]
      }, {
        "detail": [ {
          "reference": "urn:uuid:a1b24fb2-e1b6-4c31-ab8d-bfecbdd08a99"
        } ]
      }, {
        "detail": [ {
          "reference": "urn:uuid:d9c04d32-6b99-4882-912c-420e140783c6"
        } ]
      } ]
    }
  }, {
    "fullUrl": "urn:uuid:eb0ee63f-f082-4fa9-b199-3dc17cb35edf",
    "resource": {
      "resourceType": "QuestionnaireResponse",
      "id": "eb0ee63f-f082-4fa9-b199-3dc17cb35edf",
      "identifier": {
        "value": "59263"
      },
      "questionnaire": {
        "reference": "urn:uuid:92df2d5e-618a-40fa-a452-8231ae5352d1"
      },
      "status": "completed",
      "subject": {
        "reference": "urn:uuid:10d2b1c9-b9eb-40c2-b083-8c10e5efb3b8"
      },
      "context": {
        "reference": "urn:uuid:5286f78c-f196-4d24-b7a4-b3246a450061"
      },
      "authored": "2021-04-06T11:29:26+00:00",
      "item": [ {
        "linkId": "Tx220074",
        "text": "What is the reason for the contact?",
        "answer": [ {
          "valueString": "an injury or other health problem"
        } ]
      } ]
    }
  }, {
    "fullUrl": "urn:uuid:92df2d5e-618a-40fa-a452-8231ae5352d1",
    "resource": {
      "resourceType": "Questionnaire",
      "id": "92df2d5e-618a-40fa-a452-8231ae5352d1",
      "identifier": [ {
        "value": "59263"
      } ],
      "version": "2021-04-06T11:29:26.887Z",
      "status": "active",
      "experimental": false,
      "date": "2021-04-06T11:29:26+00:00",
      "publisher": "User ID: 'HADFIELDR' User name: 'Ryan Hadfield' User skill set: 'T3'",
      "lastReviewDate": "2021-04-06",
      "contact": [ {
        "telecom": [ {
          "system": "phone",
          "value": "07777 888888"
        } ]
      } ],
      "subjectType": [ "Patient" ],
      "item": [ {
        "linkId": "59263",
        "prefix": "5",
        "text": "What is the reason for the contact?",
        "type": "choice",
        "required": true,
        "repeats": false,
        "option": [ {
          "valueString": "an injury or other health problem, Selected: true"
        }, {
          "valueString": "labour or childbirth, Selected: false"
        }, {
          "valueString": "a need to access another healthcare service, Selected: false"
        }, {
          "valueString": "a healthcare professional requesting contact with another clinician, Selected: false"
        }, {
          "valueString": "a report of results or tests, Selected: false"
        }, {
          "valueString": "a possible failure of contraception, Selected: false"
        }, {
          "valueString": "more, Selected: false"
        } ]
      } ]
    }
  }, {
    "fullUrl": "urn:uuid:55436dfd-38d7-4878-8e85-fa174527e94e",
    "resource": {
      "resourceType": "QuestionnaireResponse",
      "id": "55436dfd-38d7-4878-8e85-fa174527e94e",
      "identifier": {
        "value": "59263"
      },
      "questionnaire": {
        "reference": "urn:uuid:3e50d5e1-0e07-4c55-a0ab-0d79ee3eb6f3"
      },
      "status": "completed",
      "subject": {
        "reference": "urn:uuid:10d2b1c9-b9eb-40c2-b083-8c10e5efb3b8"
      },
      "context": {
        "reference": "urn:uuid:5286f78c-f196-4d24-b7a4-b3246a450061"
      },
      "authored": "2021-04-06T11:29:26+00:00",
      "item": [ {
        "linkId": "Tx221807",
        "text": "STRING:to'Immediatethreatstolife(SPA/OOHversion)'-'Majorbloodloss'stem",
        "answer": [ {
          "valueString": "\"present\""
        } ]
      } ]
    }
  }, {
    "fullUrl": "urn:uuid:3e50d5e1-0e07-4c55-a0ab-0d79ee3eb6f3",
    "resource": {
      "resourceType": "Questionnaire",
      "id": "3e50d5e1-0e07-4c55-a0ab-0d79ee3eb6f3",
      "identifier": [ {
        "value": "59263"
      } ],
      "version": "2021-04-06T11:29:26.887Z",
      "status": "active",
      "experimental": false,
      "date": "2021-04-06T11:29:26+00:00",
      "publisher": "User ID: 'HADFIELDR' User name: 'Ryan Hadfield' User skill set: 'T3'",
      "lastReviewDate": "2021-04-06",
      "contact": [ {
        "telecom": [ {
          "system": "phone",
          "value": "07777 888888"
        } ]
      } ],
      "subjectType": [ "Patient" ],
      "item": [ {
        "linkId": "59263",
        "prefix": "200",
        "text": "STRING:to'Immediatethreatstolife(SPA/OOHversion)'-'Majorbloodloss'stem",
        "type": "choice",
        "required": true,
        "repeats": false,
        "option": [ {
          "valueString": "\"present\", Selected: true"
        } ]
      } ]
    }
  }, {
    "fullUrl": "urn:uuid:2bc5a0a2-21aa-404f-8a35-8b8a7ef10d7a",
    "resource": {
      "resourceType": "QuestionnaireResponse",
      "id": "2bc5a0a2-21aa-404f-8a35-8b8a7ef10d7a",
      "identifier": {
        "value": "59263"
      },
      "questionnaire": {
        "reference": "urn:uuid:360fa099-a808-49b9-a569-2a0104df9aec"
      },
      "status": "completed",
      "subject": {
        "reference": "urn:uuid:10d2b1c9-b9eb-40c2-b083-8c10e5efb3b8"
      },
      "context": {
        "reference": "urn:uuid:5286f78c-f196-4d24-b7a4-b3246a450061"
      },
      "authored": "2021-04-06T11:29:26+00:00"
    }
  }, {
    "fullUrl": "urn:uuid:360fa099-a808-49b9-a569-2a0104df9aec",
    "resource": {
      "resourceType": "Questionnaire",
      "id": "360fa099-a808-49b9-a569-2a0104df9aec",
      "identifier": [ {
        "value": "59263"
      } ],
      "version": "2021-04-06T11:29:26.887Z",
      "status": "active",
      "experimental": false,
      "date": "2021-04-06T11:29:26+00:00",
      "publisher": "User ID: 'HADFIELDR' User name: 'Ryan Hadfield' User skill set: 'T3'",
      "lastReviewDate": "2021-04-06",
      "contact": [ {
        "telecom": [ {
          "system": "phone",
          "value": "07777 888888"
        } ]
      } ],
      "subjectType": [ "Patient" ]
    }
  }, {
    "fullUrl": "urn:uuid:68464e05-00d3-4c8a-a3c5-a590a728cafc",
    "resource": {
      "resourceType": "QuestionnaireResponse",
      "id": "68464e05-00d3-4c8a-a3c5-a590a728cafc",
      "identifier": {
        "value": "59263"
      },
      "questionnaire": {
        "reference": "urn:uuid:4b5011dc-b186-40ad-a658-cf80994d66b7"
      },
      "status": "completed",
      "subject": {
        "reference": "urn:uuid:10d2b1c9-b9eb-40c2-b083-8c10e5efb3b8"
      },
      "context": {
        "reference": "urn:uuid:5286f78c-f196-4d24-b7a4-b3246a450061"
      },
      "authored": "2021-04-06T11:29:26+00:00",
      "item": [ {
        "linkId": "Tx221799",
        "text": "STRING:injury,illnessorlabourestablishedinEntryFlow",
        "answer": [ {
          "valueString": "\"present\""
        } ]
      } ]
    }
  }, {
    "fullUrl": "urn:uuid:4b5011dc-b186-40ad-a658-cf80994d66b7",
    "resource": {
      "resourceType": "Questionnaire",
      "id": "4b5011dc-b186-40ad-a658-cf80994d66b7",
      "identifier": [ {
        "value": "59263"
      } ],
      "version": "2021-04-06T11:29:26.887Z",
      "status": "active",
      "experimental": false,
      "date": "2021-04-06T11:29:26+00:00",
      "publisher": "User ID: 'HADFIELDR' User name: 'Ryan Hadfield' User skill set: 'T3'",
      "lastReviewDate": "2021-04-06",
      "contact": [ {
        "telecom": [ {
          "system": "phone",
          "value": "07777 888888"
        } ]
      } ],
      "subjectType": [ "Patient" ],
      "item": [ {
        "linkId": "59263",
        "prefix": "0",
        "text": "STRING:injury,illnessorlabourestablishedinEntryFlow",
        "type": "choice",
        "required": true,
        "repeats": false,
        "option": [ {
          "valueString": "\"present\", Selected: true"
        } ]
      } ]
    }
  }, {
    "fullUrl": "urn:uuid:e7b7f317-566e-40e1-a98b-cedfb63bfd32",
    "resource": {
      "resourceType": "QuestionnaireResponse",
      "id": "e7b7f317-566e-40e1-a98b-cedfb63bfd32",
      "identifier": {
        "value": "59263"
      },
      "questionnaire": {
        "reference": "urn:uuid:0c69c441-6737-4d72-9988-fb78517252be"
      },
      "status": "completed",
      "subject": {
        "reference": "urn:uuid:10d2b1c9-b9eb-40c2-b083-8c10e5efb3b8"
      },
      "context": {
        "reference": "urn:uuid:5286f78c-f196-4d24-b7a4-b3246a450061"
      },
      "authored": "2021-04-06T11:29:26+00:00",
      "item": [ {
        "linkId": "Tx224120",
        "text": "Have you been bleeding RED BLOOD very heavily IN THE LAST 2 HOURS?"
      } ]
    }
  }, {
    "fullUrl": "urn:uuid:0c69c441-6737-4d72-9988-fb78517252be",
    "resource": {
      "resourceType": "Questionnaire",
      "id": "0c69c441-6737-4d72-9988-fb78517252be",
      "identifier": [ {
        "value": "59263"
      } ],
      "version": "2021-04-06T11:29:26.887Z",
      "status": "active",
      "experimental": false,
      "date": "2021-04-06T11:29:26+00:00",
      "publisher": "User ID: 'HADFIELDR' User name: 'Ryan Hadfield' User skill set: 'T3'",
      "lastReviewDate": "2021-04-06",
      "contact": [ {
        "telecom": [ {
          "system": "phone",
          "value": "07777 888888"
        } ]
      } ],
      "subjectType": [ "Patient" ],
      "item": [ {
        "linkId": "59263",
        "prefix": "10100",
        "text": "Have you been bleeding RED BLOOD very heavily IN THE LAST 2 HOURS?",
        "type": "choice",
        "required": true,
        "repeats": false,
        "option": [ {
          "valueString": "yes, Selected: false"
        }, {
          "valueString": "not sure, Selected: false"
        }, {
          "valueString": "no, Selected: false"
        } ]
      } ]
    }
  }, {
    "fullUrl": "urn:uuid:8b143020-4de1-49c3-979c-ad5fd0828bc1",
    "resource": {
      "resourceType": "QuestionnaireResponse",
      "id": "8b143020-4de1-49c3-979c-ad5fd0828bc1",
      "identifier": {
        "value": "59263"
      },
      "questionnaire": {
        "reference": "urn:uuid:e27a4802-4291-4dd5-8999-5b9a8b7c237e"
      },
      "status": "completed",
      "subject": {
        "reference": "urn:uuid:10d2b1c9-b9eb-40c2-b083-8c10e5efb3b8"
      },
      "context": {
        "reference": "urn:uuid:5286f78c-f196-4d24-b7a4-b3246a450061"
      },
      "authored": "2021-04-06T11:29:26+00:00",
      "item": [ {
        "linkId": "Tx220074",
        "text": "What is the reason for the contact?",
        "answer": [ {
          "valueString": "more"
        } ]
      } ]
    }
  }, {
    "fullUrl": "urn:uuid:e27a4802-4291-4dd5-8999-5b9a8b7c237e",
    "resource": {
      "resourceType": "Questionnaire",
      "id": "e27a4802-4291-4dd5-8999-5b9a8b7c237e",
      "identifier": [ {
        "value": "59263"
      } ],
      "version": "2021-04-06T11:29:26.887Z",
      "status": "active",
      "experimental": false,
      "date": "2021-04-06T11:29:26+00:00",
      "publisher": "User ID: 'HADFIELDR' User name: 'Ryan Hadfield' User skill set: 'T3'",
      "lastReviewDate": "2021-04-06",
      "contact": [ {
        "telecom": [ {
          "system": "phone",
          "value": "07777 888888"
        } ]
      } ],
      "subjectType": [ "Patient" ],
      "item": [ {
        "linkId": "59263",
        "prefix": "5",
        "text": "What is the reason for the contact?",
        "type": "choice",
        "required": true,
        "repeats": false,
        "option": [ {
          "valueString": "an injury or other health problem, Selected: false"
        }, {
          "valueString": "labour or childbirth, Selected: false"
        }, {
          "valueString": "a need to access another healthcare service, Selected: false"
        }, {
          "valueString": "a healthcare professional requesting contact with another clinician, Selected: false"
        }, {
          "valueString": "a report of results or tests, Selected: false"
        }, {
          "valueString": "a possible failure of contraception, Selected: false"
        }, {
          "valueString": "more, Selected: true"
        } ]
      } ]
    }
  }, {
    "fullUrl": "urn:uuid:0de53fce-115c-41fe-be7b-68c1a2c22f3e",
    "resource": {
      "resourceType": "QuestionnaireResponse",
      "id": "0de53fce-115c-41fe-be7b-68c1a2c22f3e",
      "identifier": {
        "value": "59263"
      },
      "questionnaire": {
        "reference": "urn:uuid:b9f36548-8ae9-497a-bb8a-09f64f5de123"
      },
      "status": "completed",
      "subject": {
        "reference": "urn:uuid:10d2b1c9-b9eb-40c2-b083-8c10e5efb3b8"
      },
      "context": {
        "reference": "urn:uuid:5286f78c-f196-4d24-b7a4-b3246a450061"
      },
      "authored": "2021-04-06T11:29:26+00:00",
      "item": [ {
        "linkId": "Tx221793",
        "text": "STRING:to'Social&information'-further'Callreason'menu",
        "answer": [ {
          "valueString": "\"present\""
        } ]
      } ]
    }
  }, {
    "fullUrl": "urn:uuid:b9f36548-8ae9-497a-bb8a-09f64f5de123",
    "resource": {
      "resourceType": "Questionnaire",
      "id": "b9f36548-8ae9-497a-bb8a-09f64f5de123",
      "identifier": [ {
        "value": "59263"
      } ],
      "version": "2021-04-06T11:29:26.887Z",
      "status": "active",
      "experimental": false,
      "date": "2021-04-06T11:29:26+00:00",
      "publisher": "User ID: 'HADFIELDR' User name: 'Ryan Hadfield' User skill set: 'T3'",
      "lastReviewDate": "2021-04-06",
      "contact": [ {
        "telecom": [ {
          "system": "phone",
          "value": "07777 888888"
        } ]
      } ],
      "subjectType": [ "Patient" ],
      "item": [ {
        "linkId": "59263",
        "prefix": "600",
        "text": "STRING:to'Social&information'-further'Callreason'menu",
        "type": "choice",
        "required": true,
        "repeats": false,
        "option": [ {
          "valueString": "\"present\", Selected: true"
        } ]
      } ]
    }
  }, {
    "fullUrl": "urn:uuid:8f62911b-5ae5-4366-9d81-a68fbff1becc",
    "resource": {
      "resourceType": "QuestionnaireResponse",
      "id": "8f62911b-5ae5-4366-9d81-a68fbff1becc",
      "identifier": {
        "value": "59263"
      },
      "questionnaire": {
        "reference": "urn:uuid:ba48e0cc-1478-449e-98e8-f21f870e6695"
      },
      "status": "completed",
      "subject": {
        "reference": "urn:uuid:10d2b1c9-b9eb-40c2-b083-8c10e5efb3b8"
      },
      "context": {
        "reference": "urn:uuid:5286f78c-f196-4d24-b7a4-b3246a450061"
      },
      "authored": "2021-04-06T11:29:26+00:00"
    }
  }, {
    "fullUrl": "urn:uuid:ba48e0cc-1478-449e-98e8-f21f870e6695",
    "resource": {
      "resourceType": "Questionnaire",
      "id": "ba48e0cc-1478-449e-98e8-f21f870e6695",
      "identifier": [ {
        "value": "59263"
      } ],
      "version": "2021-04-06T11:29:26.887Z",
      "status": "active",
      "experimental": false,
      "date": "2021-04-06T11:29:26+00:00",
      "publisher": "User ID: 'HADFIELDR' User name: 'Ryan Hadfield' User skill set: 'T3'",
      "lastReviewDate": "2021-04-06",
      "contact": [ {
        "telecom": [ {
          "system": "phone",
          "value": "07777 888888"
        } ]
      } ],
      "subjectType": [ "Patient" ]
    }
  }, {
    "fullUrl": "urn:uuid:fc3224b8-e96e-451d-a813-54788f6af5e6",
    "resource": {
      "resourceType": "QuestionnaireResponse",
      "id": "fc3224b8-e96e-451d-a813-54788f6af5e6",
      "identifier": {
        "value": "59263"
      },
      "questionnaire": {
        "reference": "urn:uuid:d82566c5-f63c-4a4d-8a0e-0bbb82d5fc53"
      },
      "status": "completed",
      "subject": {
        "reference": "urn:uuid:10d2b1c9-b9eb-40c2-b083-8c10e5efb3b8"
      },
      "context": {
        "reference": "urn:uuid:5286f78c-f196-4d24-b7a4-b3246a450061"
      },
      "authored": "2021-04-06T11:29:26+00:00",
      "item": [ {
        "linkId": "Tx221804",
        "text": "STRING:transfertofurthermenuquestionestablishedinEntryFlow",
        "answer": [ {
          "valueString": "\"present\""
        } ]
      } ]
    }
  }, {
    "fullUrl": "urn:uuid:d82566c5-f63c-4a4d-8a0e-0bbb82d5fc53",
    "resource": {
      "resourceType": "Questionnaire",
      "id": "d82566c5-f63c-4a4d-8a0e-0bbb82d5fc53",
      "identifier": [ {
        "value": "59263"
      } ],
      "version": "2021-04-06T11:29:26.887Z",
      "status": "active",
      "experimental": false,
      "date": "2021-04-06T11:29:26+00:00",
      "publisher": "User ID: 'HADFIELDR' User name: 'Ryan Hadfield' User skill set: 'T3'",
      "lastReviewDate": "2021-04-06",
      "contact": [ {
        "telecom": [ {
          "system": "phone",
          "value": "07777 888888"
        } ]
      } ],
      "subjectType": [ "Patient" ],
      "item": [ {
        "linkId": "59263",
        "prefix": "41",
        "text": "STRING:transfertofurthermenuquestionestablishedinEntryFlow",
        "type": "choice",
        "required": true,
        "repeats": false,
        "option": [ {
          "valueString": "\"present\", Selected: true"
        } ]
      } ]
    }
  }, {
    "fullUrl": "urn:uuid:27bb0809-b9bb-4137-8dfa-a1d74f6f7428",
    "resource": {
      "resourceType": "QuestionnaireResponse",
      "id": "27bb0809-b9bb-4137-8dfa-a1d74f6f7428",
      "identifier": {
        "value": "59263"
      },
      "questionnaire": {
        "reference": "urn:uuid:62281068-1455-4929-a01c-e94466ebe62d"
      },
      "status": "completed",
      "subject": {
        "reference": "urn:uuid:10d2b1c9-b9eb-40c2-b083-8c10e5efb3b8"
      },
      "context": {
        "reference": "urn:uuid:5286f78c-f196-4d24-b7a4-b3246a450061"
      },
      "authored": "2021-04-06T11:29:26+00:00",
      "item": [ {
        "linkId": "Tx224998",
        "text": "SYSTEM_COVIDLEVEL2",
        "answer": [ {
          "valueString": "==\"covidlevel2\""
        } ]
      } ]
    }
  }, {
    "fullUrl": "urn:uuid:62281068-1455-4929-a01c-e94466ebe62d",
    "resource": {
      "resourceType": "Questionnaire",
      "id": "62281068-1455-4929-a01c-e94466ebe62d",
      "identifier": [ {
        "value": "59263"
      } ],
      "version": "2021-04-06T11:29:26.887Z",
      "status": "active",
      "experimental": false,
      "date": "2021-04-06T11:29:26+00:00",
      "publisher": "User ID: 'HADFIELDR' User name: 'Ryan Hadfield' User skill set: 'T3'",
      "lastReviewDate": "2021-04-06",
      "contact": [ {
        "telecom": [ {
          "system": "phone",
          "value": "07777 888888"
        } ]
      } ],
      "subjectType": [ "Patient" ],
      "item": [ {
        "linkId": "59263",
        "prefix": "5900",
        "text": "SYSTEM_COVIDLEVEL2",
        "type": "choice",
        "required": true,
        "repeats": false,
        "option": [ {
          "valueString": "==\"covidlevel2\", Selected: true"
        }, {
          "valueString": "*, Selected: false"
        } ]
      } ]
    }
  }, {
    "fullUrl": "urn:uuid:7074a7ed-575e-465c-b840-c544cb076a02",
    "resource": {
      "resourceType": "QuestionnaireResponse",
      "id": "7074a7ed-575e-465c-b840-c544cb076a02",
      "identifier": {
        "value": "59263"
      },
      "questionnaire": {
        "reference": "urn:uuid:35afe2dd-ccf5-49ed-8ab0-ec48902b7aef"
      },
      "status": "completed",
      "subject": {
        "reference": "urn:uuid:10d2b1c9-b9eb-40c2-b083-8c10e5efb3b8"
      },
      "context": {
        "reference": "urn:uuid:5286f78c-f196-4d24-b7a4-b3246a450061"
      },
      "authored": "2021-04-06T11:29:26+00:00",
      "item": [ {
        "linkId": "Tx225069",
        "text": "What is the reason for the contact?",
        "answer": [ {
          "valueString": "a prescription request"
        } ]
      } ]
    }
  }, {
    "fullUrl": "urn:uuid:35afe2dd-ccf5-49ed-8ab0-ec48902b7aef",
    "resource": {
      "resourceType": "Questionnaire",
      "id": "35afe2dd-ccf5-49ed-8ab0-ec48902b7aef",
      "identifier": [ {
        "value": "59263"
      } ],
      "version": "2021-04-06T11:29:26.887Z",
      "status": "active",
      "experimental": false,
      "date": "2021-04-06T11:29:26+00:00",
      "publisher": "User ID: 'HADFIELDR' User name: 'Ryan Hadfield' User skill set: 'T3'",
      "lastReviewDate": "2021-04-06",
      "contact": [ {
        "telecom": [ {
          "system": "phone",
          "value": "07777 888888"
        } ]
      } ],
      "subjectType": [ "Patient" ],
      "item": [ {
        "linkId": "59263",
        "prefix": "6000",
        "text": "What is the reason for the contact?",
        "type": "choice",
        "required": true,
        "repeats": false,
        "option": [ {
          "valueString": "a child protection/vulnerable adult concern (specify), Selected: false"
        }, {
          "valueString": "a social or domestic emergency, Selected: false"
        }, {
          "valueString": "a prescription request, Selected: true"
        }, {
          "valueString": "an appointment request, Selected: false"
        }, {
          "valueString": "a request for health or medication information, Selected: false"
        }, {
          "valueString": "public health alert information, Selected: false"
        } ]
      } ]
    }
  }, {
    "fullUrl": "urn:uuid:c9805efc-1b44-4c8c-a5de-aa25c9d8525b",
    "resource": {
      "resourceType": "QuestionnaireResponse",
      "id": "c9805efc-1b44-4c8c-a5de-aa25c9d8525b",
      "identifier": {
        "value": "59263"
      },
      "questionnaire": {
        "reference": "urn:uuid:ba867b0a-f537-47bc-bf9a-c8dbe74c7542"
      },
      "status": "completed",
      "subject": {
        "reference": "urn:uuid:10d2b1c9-b9eb-40c2-b083-8c10e5efb3b8"
      },
      "context": {
        "reference": "urn:uuid:5286f78c-f196-4d24-b7a4-b3246a450061"
      },
      "authored": "2021-04-06T11:29:26+00:00",
      "item": [ {
        "linkId": "Tx220957",
        "text": "Is this contact about a new or worsening illness?",
        "answer": [ {
          "valueString": "no"
        } ]
      } ]
    }
  }, {
    "fullUrl": "urn:uuid:ba867b0a-f537-47bc-bf9a-c8dbe74c7542",
    "resource": {
      "resourceType": "Questionnaire",
      "id": "ba867b0a-f537-47bc-bf9a-c8dbe74c7542",
      "identifier": [ {
        "value": "59263"
      } ],
      "version": "2021-04-06T11:29:26.887Z",
      "status": "active",
      "experimental": false,
      "date": "2021-04-06T11:29:26+00:00",
      "publisher": "User ID: 'HADFIELDR' User name: 'Ryan Hadfield' User skill set: 'T3'",
      "lastReviewDate": "2021-04-06",
      "contact": [ {
        "telecom": [ {
          "system": "phone",
          "value": "07777 888888"
        } ]
      } ],
      "subjectType": [ "Patient" ],
      "item": [ {
        "linkId": "59263",
        "prefix": "1400",
        "text": "Is this contact about a new or worsening illness?",
        "type": "choice",
        "required": true,
        "repeats": false,
        "option": [ {
          "valueString": "yes, Selected: false"
        }, {
          "valueString": "not sure, Selected: false"
        }, {
          "valueString": "no, Selected: true"
        } ]
      } ]
    }
  }, {
    "fullUrl": "urn:uuid:3e864105-776e-45be-87dd-e3fc24a6aeff",
    "resource": {
      "resourceType": "QuestionnaireResponse",
      "id": "3e864105-776e-45be-87dd-e3fc24a6aeff",
      "identifier": {
        "value": "59263"
      },
      "questionnaire": {
        "reference": "urn:uuid:062ab909-85fd-4f45-af9e-de4d2e793d70"
      },
      "status": "completed",
      "subject": {
        "reference": "urn:uuid:10d2b1c9-b9eb-40c2-b083-8c10e5efb3b8"
      },
      "context": {
        "reference": "urn:uuid:5286f78c-f196-4d24-b7a4-b3246a450061"
      },
      "authored": "2021-04-06T11:29:26+00:00",
      "item": [ {
        "linkId": "Tx221352",
        "text": "Have you got enough medication to last until the surgery opens?",
        "answer": [ {
          "valueString": "no"
        } ]
      } ]
    }
  }, {
    "fullUrl": "urn:uuid:062ab909-85fd-4f45-af9e-de4d2e793d70",
    "resource": {
      "resourceType": "Questionnaire",
      "id": "062ab909-85fd-4f45-af9e-de4d2e793d70",
      "identifier": [ {
        "value": "59263"
      } ],
      "version": "2021-04-06T11:29:26.887Z",
      "status": "active",
      "experimental": false,
      "date": "2021-04-06T11:29:26+00:00",
      "publisher": "User ID: 'HADFIELDR' User name: 'Ryan Hadfield' User skill set: 'T3'",
      "lastReviewDate": "2021-04-06",
      "contact": [ {
        "telecom": [ {
          "system": "phone",
          "value": "07777 888888"
        } ]
      } ],
      "subjectType": [ "Patient" ],
      "item": [ {
        "linkId": "59263",
        "prefix": "1500",
        "text": "Have you got enough medication to last until the surgery opens?",
        "type": "choice",
        "required": true,
        "repeats": false,
        "option": [ {
          "valueString": "yes, Selected: false"
        }, {
          "valueString": "not sure, Selected: false"
        }, {
          "valueString": "no, Selected: true"
        } ]
      } ]
    }
  }, {
    "fullUrl": "urn:uuid:05965a1c-9fbb-4455-b7a0-b84c73e596e6",
    "resource": {
      "resourceType": "QuestionnaireResponse",
      "id": "05965a1c-9fbb-4455-b7a0-b84c73e596e6",
      "identifier": {
        "value": "59263"
      },
      "questionnaire": {
        "reference": "urn:uuid:27580275-b064-45bf-adaf-bceb8621613d"
      },
      "status": "completed",
      "subject": {
        "reference": "urn:uuid:10d2b1c9-b9eb-40c2-b083-8c10e5efb3b8"
      },
      "context": {
        "reference": "urn:uuid:5286f78c-f196-4d24-b7a4-b3246a450061"
      },
      "authored": "2021-04-06T11:29:26+00:00"
    }
  }, {
    "fullUrl": "urn:uuid:27580275-b064-45bf-adaf-bceb8621613d",
    "resource": {
      "resourceType": "Questionnaire",
      "id": "27580275-b064-45bf-adaf-bceb8621613d",
      "identifier": [ {
        "value": "59263"
      } ],
      "version": "2021-04-06T11:29:26.887Z",
      "status": "active",
      "experimental": false,
      "date": "2021-04-06T11:29:26+00:00",
      "publisher": "User ID: 'HADFIELDR' User name: 'Ryan Hadfield' User skill set: 'T3'",
      "lastReviewDate": "2021-04-06",
      "contact": [ {
        "telecom": [ {
          "system": "phone",
          "value": "07777 888888"
        } ]
      } ],
      "subjectType": [ "Patient" ]
    }
  }, {
    "fullUrl": "urn:uuid:93f83b42-62ab-46d8-bad1-f631123f0807",
    "resource": {
      "resourceType": "QuestionnaireResponse",
      "id": "93f83b42-62ab-46d8-bad1-f631123f0807",
      "identifier": {
        "value": "59263"
      },
      "questionnaire": {
        "reference": "urn:uuid:53a42de0-7b2a-469c-b2a7-30b374266f50"
      },
      "status": "completed",
      "subject": {
        "reference": "urn:uuid:10d2b1c9-b9eb-40c2-b083-8c10e5efb3b8"
      },
      "context": {
        "reference": "urn:uuid:5286f78c-f196-4d24-b7a4-b3246a450061"
      },
      "authored": "2021-04-06T11:29:26+00:00",
      "item": [ {
        "linkId": "Tx224231",
        "text": "FROM WHAT YOU HAVE HEARD IS A CONSULTATION WITH A PRESCRIBER NEEDED?",
        "answer": [ {
          "valueString": "yes"
        } ]
      } ]
    }
  }, {
    "fullUrl": "urn:uuid:53a42de0-7b2a-469c-b2a7-30b374266f50",
    "resource": {
      "resourceType": "Questionnaire",
      "id": "53a42de0-7b2a-469c-b2a7-30b374266f50",
      "identifier": [ {
        "value": "59263"
      } ],
      "version": "2021-04-06T11:29:26.887Z",
      "status": "active",
      "experimental": false,
      "date": "2021-04-06T11:29:26+00:00",
      "publisher": "User ID: 'HADFIELDR' User name: 'Ryan Hadfield' User skill set: 'T3'",
      "lastReviewDate": "2021-04-06",
      "contact": [ {
        "telecom": [ {
          "system": "phone",
          "value": "07777 888888"
        } ]
      } ],
      "subjectType": [ "Patient" ],
      "item": [ {
        "linkId": "59263",
        "prefix": "0",
        "text": "FROM WHAT YOU HAVE HEARD IS A CONSULTATION WITH A PRESCRIBER NEEDED?",
        "type": "choice",
        "required": true,
        "repeats": false,
        "option": [ {
          "valueString": "yes, Selected: true"
        }, {
          "valueString": "not sure, Selected: false"
        }, {
          "valueString": "no, Selected: false"
        } ]
      } ]
    }
  }, {
    "fullUrl": "urn:uuid:8808fdc6-be27-424a-981b-55da83582d83",
    "resource": {
      "resourceType": "QuestionnaireResponse",
      "id": "8808fdc6-be27-424a-981b-55da83582d83",
      "identifier": {
        "value": "59263"
      },
      "questionnaire": {
        "reference": "urn:uuid:6c3619f7-9fe4-4ad6-b8ec-9e0175aa217d"
      },
      "status": "completed",
      "subject": {
        "reference": "urn:uuid:10d2b1c9-b9eb-40c2-b083-8c10e5efb3b8"
      },
      "context": {
        "reference": "urn:uuid:5286f78c-f196-4d24-b7a4-b3246a450061"
      },
      "authored": "2021-04-06T11:29:26+00:00",
      "item": [ {
        "linkId": "Tx221367",
        "text": "When is the next dose due?",
        "answer": [ {
          "valueString": "within the next 12 hours"
        } ]
      } ]
    }
  }, {
    "fullUrl": "urn:uuid:6c3619f7-9fe4-4ad6-b8ec-9e0175aa217d",
    "resource": {
      "resourceType": "Questionnaire",
      "id": "6c3619f7-9fe4-4ad6-b8ec-9e0175aa217d",
      "identifier": [ {
        "value": "59263"
      } ],
      "version": "2021-04-06T11:29:26.887Z",
      "status": "active",
      "experimental": false,
      "date": "2021-04-06T11:29:26+00:00",
      "publisher": "User ID: 'HADFIELDR' User name: 'Ryan Hadfield' User skill set: 'T3'",
      "lastReviewDate": "2021-04-06",
      "contact": [ {
        "telecom": [ {
          "system": "phone",
          "value": "07777 888888"
        } ]
      } ],
      "subjectType": [ "Patient" ],
      "item": [ {
        "linkId": "59263",
        "prefix": "2900",
        "text": "When is the next dose due?",
        "type": "choice",
        "required": true,
        "repeats": false,
        "option": [ {
          "valueString": "within the next 2 hours, Selected: false"
        }, {
          "valueString": "within the next 6 hours, Selected: false"
        }, {
          "valueString": "within the next 12 hours, Selected: true"
        }, {
          "valueString": "over 12 hours time, Selected: false"
        }, {
          "valueString": "not sure, Selected: false"
        } ]
      } ]
    }
  }, {
    "fullUrl": "urn:uuid:27c60ac6-6e44-49e0-8c0a-79c93d0b7f7a",
    "resource": {
      "resourceType": "QuestionnaireResponse",
      "id": "27c60ac6-6e44-49e0-8c0a-79c93d0b7f7a",
      "identifier": {
        "value": "59263"
      },
      "questionnaire": {
        "reference": "urn:uuid:f27b606b-3af2-4b7f-a3eb-f6f2aca8df17"
      },
      "status": "completed",
      "subject": {
        "reference": "urn:uuid:10d2b1c9-b9eb-40c2-b083-8c10e5efb3b8"
      },
      "context": {
        "reference": "urn:uuid:5286f78c-f196-4d24-b7a4-b3246a450061"
      },
      "authored": "2021-04-06T11:29:26+00:00",
      "item": [ {
        "linkId": "Tx221449",
        "text": "STRING:SDPCFullPrimaryCareassessmentandprescribingcapability",
        "answer": [ {
          "valueString": "\"PC full Primary Care assessment and prescribing capability\""
        } ]
      } ]
    }
  }, {
    "fullUrl": "urn:uuid:f27b606b-3af2-4b7f-a3eb-f6f2aca8df17",
    "resource": {
      "resourceType": "Questionnaire",
      "id": "f27b606b-3af2-4b7f-a3eb-f6f2aca8df17",
      "identifier": [ {
        "value": "59263"
      } ],
      "version": "2021-04-06T11:29:26.887Z",
      "status": "active",
      "experimental": false,
      "date": "2021-04-06T11:29:26+00:00",
      "publisher": "User ID: 'HADFIELDR' User name: 'Ryan Hadfield' User skill set: 'T3'",
      "lastReviewDate": "2021-04-06",
      "contact": [ {
        "telecom": [ {
          "system": "phone",
          "value": "07777 888888"
        } ]
      } ],
      "subjectType": [ "Patient" ],
      "item": [ {
        "linkId": "59263",
        "prefix": "3000",
        "text": "STRING:SDPCFullPrimaryCareassessmentandprescribingcapability",
        "type": "choice",
        "required": true,
        "repeats": false,
        "option": [ {
          "valueString": "\"PC full Primary Care assessment and prescribing capability\", Selected: true"
        } ]
      } ]
    }
  }, {
    "fullUrl": "urn:uuid:c4d6b639-b5f4-432c-a0e7-969725e8de59",
    "resource": {
      "resourceType": "QuestionnaireResponse",
      "id": "c4d6b639-b5f4-432c-a0e7-969725e8de59",
      "identifier": {
        "value": "59263"
      },
      "questionnaire": {
        "reference": "urn:uuid:7b79095f-3433-4515-b151-31a03dcb0d45"
      },
      "status": "completed",
      "subject": {
        "reference": "urn:uuid:10d2b1c9-b9eb-40c2-b083-8c10e5efb3b8"
      },
      "context": {
        "reference": "urn:uuid:5286f78c-f196-4d24-b7a4-b3246a450061"
      },
      "authored": "2021-04-06T11:29:26+00:00"
    }
  }, {
    "fullUrl": "urn:uuid:7b79095f-3433-4515-b151-31a03dcb0d45",
    "resource": {
      "resourceType": "Questionnaire",
      "id": "7b79095f-3433-4515-b151-31a03dcb0d45",
      "identifier": [ {
        "value": "59263"
      } ],
      "version": "2021-04-06T11:29:26.887Z",
      "status": "active",
      "experimental": false,
      "date": "2021-04-06T11:29:26+00:00",
      "publisher": "User ID: 'HADFIELDR' User name: 'Ryan Hadfield' User skill set: 'T3'",
      "lastReviewDate": "2021-04-06",
      "contact": [ {
        "telecom": [ {
          "system": "phone",
          "value": "07777 888888"
        } ]
      } ],
      "subjectType": [ "Patient" ]
    }
  }, {
    "fullUrl": "urn:uuid:4bcb00d8-ba7c-4f83-8721-e6742f2d6901",
    "resource": {
      "resourceType": "QuestionnaireResponse",
      "id": "4bcb00d8-ba7c-4f83-8721-e6742f2d6901",
      "identifier": {
        "value": "59263"
      },
      "questionnaire": {
        "reference": "urn:uuid:8f44203c-a18d-4a8c-a22e-96a3e93b0916"
      },
      "status": "completed",
      "subject": {
        "reference": "urn:uuid:10d2b1c9-b9eb-40c2-b083-8c10e5efb3b8"
      },
      "context": {
        "reference": "urn:uuid:5286f78c-f196-4d24-b7a4-b3246a450061"
      },
      "authored": "2021-04-06T11:29:26+00:00",
      "item": [ {
        "linkId": "Tx220074",
        "text": "What is the reason for the contact?",
        "answer": [ {
          "valueString": "an injury or other health problem"
        } ]
      } ]
    }
  }, {
    "fullUrl": "urn:uuid:8f44203c-a18d-4a8c-a22e-96a3e93b0916",
    "resource": {
      "resourceType": "Questionnaire",
      "id": "8f44203c-a18d-4a8c-a22e-96a3e93b0916",
      "identifier": [ {
        "value": "59263"
      } ],
      "version": "2021-04-06T11:29:26.887Z",
      "status": "active",
      "experimental": false,
      "date": "2021-04-06T11:29:26+00:00",
      "publisher": "User ID: 'HADFIELDR' User name: 'Ryan Hadfield' User skill set: 'T3'",
      "lastReviewDate": "2021-04-06",
      "contact": [ {
        "telecom": [ {
          "system": "phone",
          "value": "07777 888888"
        } ]
      } ],
      "subjectType": [ "Patient" ],
      "item": [ {
        "linkId": "59263",
        "prefix": "5",
        "text": "What is the reason for the contact?",
        "type": "choice",
        "required": true,
        "repeats": false,
        "option": [ {
          "valueString": "an injury or other health problem, Selected: true"
        }, {
          "valueString": "labour or childbirth, Selected: false"
        }, {
          "valueString": "a need to access another healthcare service, Selected: false"
        }, {
          "valueString": "a healthcare professional requesting contact with another clinician, Selected: false"
        }, {
          "valueString": "a report of results or tests, Selected: false"
        }, {
          "valueString": "a possible failure of contraception, Selected: false"
        }, {
          "valueString": "more, Selected: false"
        } ]
      } ]
    }
  }, {
    "fullUrl": "urn:uuid:01907459-2c9e-4520-833e-de3074c82342",
    "resource": {
      "resourceType": "QuestionnaireResponse",
      "id": "01907459-2c9e-4520-833e-de3074c82342",
      "identifier": {
        "value": "59263"
      },
      "questionnaire": {
        "reference": "urn:uuid:e2c1e460-898e-4856-a323-8c1d507bbd8f"
      },
      "status": "completed",
      "subject": {
        "reference": "urn:uuid:10d2b1c9-b9eb-40c2-b083-8c10e5efb3b8"
      },
      "context": {
        "reference": "urn:uuid:5286f78c-f196-4d24-b7a4-b3246a450061"
      },
      "authored": "2021-04-06T11:29:26+00:00",
      "item": [ {
        "linkId": "Tx221807",
        "text": "STRING:to'Immediatethreatstolife(SPA/OOHversion)'-'Majorbloodloss'stem",
        "answer": [ {
          "valueString": "\"present\""
        } ]
      } ]
    }
  }, {
    "fullUrl": "urn:uuid:e2c1e460-898e-4856-a323-8c1d507bbd8f",
    "resource": {
      "resourceType": "Questionnaire",
      "id": "e2c1e460-898e-4856-a323-8c1d507bbd8f",
      "identifier": [ {
        "value": "59263"
      } ],
      "version": "2021-04-06T11:29:26.887Z",
      "status": "active",
      "experimental": false,
      "date": "2021-04-06T11:29:26+00:00",
      "publisher": "User ID: 'HADFIELDR' User name: 'Ryan Hadfield' User skill set: 'T3'",
      "lastReviewDate": "2021-04-06",
      "contact": [ {
        "telecom": [ {
          "system": "phone",
          "value": "07777 888888"
        } ]
      } ],
      "subjectType": [ "Patient" ],
      "item": [ {
        "linkId": "59263",
        "prefix": "200",
        "text": "STRING:to'Immediatethreatstolife(SPA/OOHversion)'-'Majorbloodloss'stem",
        "type": "choice",
        "required": true,
        "repeats": false,
        "option": [ {
          "valueString": "\"present\", Selected: true"
        } ]
      } ]
    }
  }, {
    "fullUrl": "urn:uuid:4f4ddf29-b5e8-44ea-9e35-0a667911349f",
    "resource": {
      "resourceType": "QuestionnaireResponse",
      "id": "4f4ddf29-b5e8-44ea-9e35-0a667911349f",
      "identifier": {
        "value": "59263"
      },
      "questionnaire": {
        "reference": "urn:uuid:6e16b5b6-d712-4485-98bd-f59dcb021102"
      },
      "status": "completed",
      "subject": {
        "reference": "urn:uuid:10d2b1c9-b9eb-40c2-b083-8c10e5efb3b8"
      },
      "context": {
        "reference": "urn:uuid:5286f78c-f196-4d24-b7a4-b3246a450061"
      },
      "authored": "2021-04-06T11:29:26+00:00"
    }
  }, {
    "fullUrl": "urn:uuid:6e16b5b6-d712-4485-98bd-f59dcb021102",
    "resource": {
      "resourceType": "Questionnaire",
      "id": "6e16b5b6-d712-4485-98bd-f59dcb021102",
      "identifier": [ {
        "value": "59263"
      } ],
      "version": "2021-04-06T11:29:26.887Z",
      "status": "active",
      "experimental": false,
      "date": "2021-04-06T11:29:26+00:00",
      "publisher": "User ID: 'HADFIELDR' User name: 'Ryan Hadfield' User skill set: 'T3'",
      "lastReviewDate": "2021-04-06",
      "contact": [ {
        "telecom": [ {
          "system": "phone",
          "value": "07777 888888"
        } ]
      } ],
      "subjectType": [ "Patient" ]
    }
  }, {
    "fullUrl": "urn:uuid:555d9edb-58cc-4bd4-9dba-bbfc55ab0a54",
    "resource": {
      "resourceType": "QuestionnaireResponse",
      "id": "555d9edb-58cc-4bd4-9dba-bbfc55ab0a54",
      "identifier": {
        "value": "59263"
      },
      "questionnaire": {
        "reference": "urn:uuid:201602f1-35c6-47ac-a61a-0defeffcfc34"
      },
      "status": "completed",
      "subject": {
        "reference": "urn:uuid:10d2b1c9-b9eb-40c2-b083-8c10e5efb3b8"
      },
      "context": {
        "reference": "urn:uuid:5286f78c-f196-4d24-b7a4-b3246a450061"
      },
      "authored": "2021-04-06T11:29:26+00:00",
      "item": [ {
        "linkId": "Tx221799",
        "text": "STRING:injury,illnessorlabourestablishedinEntryFlow",
        "answer": [ {
          "valueString": "\"present\""
        } ]
      } ]
    }
  }, {
    "fullUrl": "urn:uuid:201602f1-35c6-47ac-a61a-0defeffcfc34",
    "resource": {
      "resourceType": "Questionnaire",
      "id": "201602f1-35c6-47ac-a61a-0defeffcfc34",
      "identifier": [ {
        "value": "59263"
      } ],
      "version": "2021-04-06T11:29:26.887Z",
      "status": "active",
      "experimental": false,
      "date": "2021-04-06T11:29:26+00:00",
      "publisher": "User ID: 'HADFIELDR' User name: 'Ryan Hadfield' User skill set: 'T3'",
      "lastReviewDate": "2021-04-06",
      "contact": [ {
        "telecom": [ {
          "system": "phone",
          "value": "07777 888888"
        } ]
      } ],
      "subjectType": [ "Patient" ],
      "item": [ {
        "linkId": "59263",
        "prefix": "0",
        "text": "STRING:injury,illnessorlabourestablishedinEntryFlow",
        "type": "choice",
        "required": true,
        "repeats": false,
        "option": [ {
          "valueString": "\"present\", Selected: true"
        } ]
      } ]
    }
  }, {
    "fullUrl": "urn:uuid:22748296-3adf-4534-ac56-7a6832449474",
    "resource": {
      "resourceType": "QuestionnaireResponse",
      "id": "22748296-3adf-4534-ac56-7a6832449474",
      "identifier": {
        "value": "59263"
      },
      "questionnaire": {
        "reference": "urn:uuid:c4c15e06-1812-4aa7-a0d9-fa20f998af9f"
      },
      "status": "completed",
      "subject": {
        "reference": "urn:uuid:10d2b1c9-b9eb-40c2-b083-8c10e5efb3b8"
      },
      "context": {
        "reference": "urn:uuid:5286f78c-f196-4d24-b7a4-b3246a450061"
      },
      "authored": "2021-04-06T11:29:26+00:00",
      "item": [ {
        "linkId": "Tx224120",
        "text": "Have you been bleeding RED BLOOD very heavily IN THE LAST 2 HOURS?",
        "answer": [ {
          "valueString": "no"
        } ]
      } ]
    }
  }, {
    "fullUrl": "urn:uuid:c4c15e06-1812-4aa7-a0d9-fa20f998af9f",
    "resource": {
      "resourceType": "Questionnaire",
      "id": "c4c15e06-1812-4aa7-a0d9-fa20f998af9f",
      "identifier": [ {
        "value": "59263"
      } ],
      "version": "2021-04-06T11:29:26.887Z",
      "status": "active",
      "experimental": false,
      "date": "2021-04-06T11:29:26+00:00",
      "publisher": "User ID: 'HADFIELDR' User name: 'Ryan Hadfield' User skill set: 'T3'",
      "lastReviewDate": "2021-04-06",
      "contact": [ {
        "telecom": [ {
          "system": "phone",
          "value": "07777 888888"
        } ]
      } ],
      "subjectType": [ "Patient" ],
      "item": [ {
        "linkId": "59263",
        "prefix": "10100",
        "text": "Have you been bleeding RED BLOOD very heavily IN THE LAST 2 HOURS?",
        "type": "choice",
        "required": true,
        "repeats": false,
        "option": [ {
          "valueString": "yes, Selected: false"
        }, {
          "valueString": "not sure, Selected: false"
        }, {
          "valueString": "no, Selected: true"
        } ]
      } ]
    }
  }, {
    "fullUrl": "urn:uuid:8d7f62f2-bc62-4eec-9a0e-569804aee218",
    "resource": {
      "resourceType": "QuestionnaireResponse",
      "id": "8d7f62f2-bc62-4eec-9a0e-569804aee218",
      "identifier": {
        "value": "59263"
      },
      "questionnaire": {
        "reference": "urn:uuid:740bac16-219b-477a-876a-9d0bbb99c1ec"
      },
      "status": "completed",
      "subject": {
        "reference": "urn:uuid:10d2b1c9-b9eb-40c2-b083-8c10e5efb3b8"
      },
      "context": {
        "reference": "urn:uuid:5286f78c-f196-4d24-b7a4-b3246a450061"
      },
      "authored": "2021-04-06T11:29:26+00:00",
      "item": [ {
        "linkId": "Tx221343",
        "text": "SocialConcernsExcluded",
        "answer": [ {
          "valueString": "*"
        } ]
      } ]
    }
  }, {
    "fullUrl": "urn:uuid:740bac16-219b-477a-876a-9d0bbb99c1ec",
    "resource": {
      "resourceType": "Questionnaire",
      "id": "740bac16-219b-477a-876a-9d0bbb99c1ec",
      "identifier": [ {
        "value": "59263"
      } ],
      "version": "2021-04-06T11:29:26.887Z",
      "status": "active",
      "experimental": false,
      "date": "2021-04-06T11:29:26+00:00",
      "publisher": "User ID: 'HADFIELDR' User name: 'Ryan Hadfield' User skill set: 'T3'",
      "lastReviewDate": "2021-04-06",
      "contact": [ {
        "telecom": [ {
          "system": "phone",
          "value": "07777 888888"
        } ]
      } ],
      "subjectType": [ "Patient" ],
      "item": [ {
        "linkId": "59263",
        "prefix": "1100",
        "text": "SocialConcernsExcluded",
        "type": "choice",
        "required": true,
        "repeats": false,
        "option": [ {
          "valueString": "==\"present\", Selected: false"
        }, {
          "valueString": "*, Selected: true"
        } ]
      } ]
    }
  }, {
    "fullUrl": "urn:uuid:565b1968-c138-417b-b944-b137700dc93b",
    "resource": {
      "resourceType": "QuestionnaireResponse",
      "id": "565b1968-c138-417b-b944-b137700dc93b",
      "identifier": {
        "value": "59263"
      },
      "questionnaire": {
        "reference": "urn:uuid:b5b4c789-c354-4dcc-8dde-b159bc110496"
      },
      "status": "completed",
      "subject": {
        "reference": "urn:uuid:10d2b1c9-b9eb-40c2-b083-8c10e5efb3b8"
      },
      "context": {
        "reference": "urn:uuid:5286f78c-f196-4d24-b7a4-b3246a450061"
      },
      "authored": "2021-04-06T11:29:26+00:00",
      "item": [ {
        "linkId": "Tx130011",
        "text": "What is the main problem?"
      } ]
    }
  }, {
    "fullUrl": "urn:uuid:b5b4c789-c354-4dcc-8dde-b159bc110496",
    "resource": {
      "resourceType": "Questionnaire",
      "id": "b5b4c789-c354-4dcc-8dde-b159bc110496",
      "identifier": [ {
        "value": "59263"
      } ],
      "version": "2021-04-06T11:29:26.887Z",
      "status": "active",
      "experimental": false,
      "date": "2021-04-06T11:29:26+00:00",
      "publisher": "User ID: 'HADFIELDR' User name: 'Ryan Hadfield' User skill set: 'T3'",
      "lastReviewDate": "2021-04-06",
      "contact": [ {
        "telecom": [ {
          "system": "phone",
          "value": "07777 888888"
        } ]
      } ],
      "subjectType": [ "Patient" ],
      "item": [ {
        "linkId": "59263",
        "prefix": "2300",
        "text": "What is the main problem?",
        "type": "choice",
        "required": true,
        "repeats": false,
        "option": [ {
          "valueString": "the individual has been told to follow a particular course of action (specify), Selected: false"
        }, {
          "valueString": "the individual is an identified frequent caller, Selected: false"
        }, {
          "valueString": "injury (specify), Selected: false"
        }, {
          "valueString": "illness or other health problem (specify), Selected: false"
        }, {
          "valueString": "child protection/vulnerable adult concern, Selected: false"
        }, {
          "valueString": "social or domestic emergency, Selected: false"
        }, {
          "valueString": "the environment potentially poses an immediate threat to life (specify), Selected: false"
        } ]
      } ]
    }
  }, {
    "fullUrl": "urn:uuid:775a6cc7-b119-4a5f-8427-9ce70adfaea6",
    "resource": {
      "resourceType": "QuestionnaireResponse",
      "id": "775a6cc7-b119-4a5f-8427-9ce70adfaea6",
      "identifier": {
        "value": "59263"
      },
      "questionnaire": {
        "reference": "urn:uuid:e60cb767-a50a-4ed0-81c9-5328cc3651d4"
      },
      "status": "completed",
      "subject": {
        "reference": "urn:uuid:10d2b1c9-b9eb-40c2-b083-8c10e5efb3b8"
      },
      "context": {
        "reference": "urn:uuid:5286f78c-f196-4d24-b7a4-b3246a450061"
      },
      "authored": "2021-04-06T11:29:26+00:00",
      "item": [ {
        "linkId": "Tx220074",
        "text": "What is the reason for the contact?",
        "answer": [ {
          "valueString": "more"
        } ]
      } ]
    }
  }, {
    "fullUrl": "urn:uuid:e60cb767-a50a-4ed0-81c9-5328cc3651d4",
    "resource": {
      "resourceType": "Questionnaire",
      "id": "e60cb767-a50a-4ed0-81c9-5328cc3651d4",
      "identifier": [ {
        "value": "59263"
      } ],
      "version": "2021-04-06T11:29:26.887Z",
      "status": "active",
      "experimental": false,
      "date": "2021-04-06T11:29:26+00:00",
      "publisher": "User ID: 'HADFIELDR' User name: 'Ryan Hadfield' User skill set: 'T3'",
      "lastReviewDate": "2021-04-06",
      "contact": [ {
        "telecom": [ {
          "system": "phone",
          "value": "07777 888888"
        } ]
      } ],
      "subjectType": [ "Patient" ],
      "item": [ {
        "linkId": "59263",
        "prefix": "5",
        "text": "What is the reason for the contact?",
        "type": "choice",
        "required": true,
        "repeats": false,
        "option": [ {
          "valueString": "an injury or other health problem, Selected: false"
        }, {
          "valueString": "labour or childbirth, Selected: false"
        }, {
          "valueString": "a need to access another healthcare service, Selected: false"
        }, {
          "valueString": "a healthcare professional requesting contact with another clinician, Selected: false"
        }, {
          "valueString": "a report of results or tests, Selected: false"
        }, {
          "valueString": "a possible failure of contraception, Selected: false"
        }, {
          "valueString": "more, Selected: true"
        } ]
      } ]
    }
  }, {
    "fullUrl": "urn:uuid:f0d247bc-5201-4e24-95ee-34ad23f454d2",
    "resource": {
      "resourceType": "QuestionnaireResponse",
      "id": "f0d247bc-5201-4e24-95ee-34ad23f454d2",
      "identifier": {
        "value": "59263"
      },
      "questionnaire": {
        "reference": "urn:uuid:38246fc3-8f35-4261-b679-6df807be8e39"
      },
      "status": "completed",
      "subject": {
        "reference": "urn:uuid:10d2b1c9-b9eb-40c2-b083-8c10e5efb3b8"
      },
      "context": {
        "reference": "urn:uuid:5286f78c-f196-4d24-b7a4-b3246a450061"
      },
      "authored": "2021-04-06T11:29:26+00:00",
      "item": [ {
        "linkId": "Tx221793",
        "text": "STRING:to'Social&information'-further'Callreason'menu",
        "answer": [ {
          "valueString": "\"present\""
        } ]
      } ]
    }
  }, {
    "fullUrl": "urn:uuid:38246fc3-8f35-4261-b679-6df807be8e39",
    "resource": {
      "resourceType": "Questionnaire",
      "id": "38246fc3-8f35-4261-b679-6df807be8e39",
      "identifier": [ {
        "value": "59263"
      } ],
      "version": "2021-04-06T11:29:26.887Z",
      "status": "active",
      "experimental": false,
      "date": "2021-04-06T11:29:26+00:00",
      "publisher": "User ID: 'HADFIELDR' User name: 'Ryan Hadfield' User skill set: 'T3'",
      "lastReviewDate": "2021-04-06",
      "contact": [ {
        "telecom": [ {
          "system": "phone",
          "value": "07777 888888"
        } ]
      } ],
      "subjectType": [ "Patient" ],
      "item": [ {
        "linkId": "59263",
        "prefix": "600",
        "text": "STRING:to'Social&information'-further'Callreason'menu",
        "type": "choice",
        "required": true,
        "repeats": false,
        "option": [ {
          "valueString": "\"present\", Selected: true"
        } ]
      } ]
    }
  }, {
    "fullUrl": "urn:uuid:aef06e6a-19dc-42d6-8465-2044b5ed70d3",
    "resource": {
      "resourceType": "QuestionnaireResponse",
      "id": "aef06e6a-19dc-42d6-8465-2044b5ed70d3",
      "identifier": {
        "value": "59263"
      },
      "questionnaire": {
        "reference": "urn:uuid:70ff144c-b818-4ed3-8d65-655ef35f8a5e"
      },
      "status": "completed",
      "subject": {
        "reference": "urn:uuid:10d2b1c9-b9eb-40c2-b083-8c10e5efb3b8"
      },
      "context": {
        "reference": "urn:uuid:5286f78c-f196-4d24-b7a4-b3246a450061"
      },
      "authored": "2021-04-06T11:29:26+00:00"
    }
  }, {
    "fullUrl": "urn:uuid:70ff144c-b818-4ed3-8d65-655ef35f8a5e",
    "resource": {
      "resourceType": "Questionnaire",
      "id": "70ff144c-b818-4ed3-8d65-655ef35f8a5e",
      "identifier": [ {
        "value": "59263"
      } ],
      "version": "2021-04-06T11:29:26.887Z",
      "status": "active",
      "experimental": false,
      "date": "2021-04-06T11:29:26+00:00",
      "publisher": "User ID: 'HADFIELDR' User name: 'Ryan Hadfield' User skill set: 'T3'",
      "lastReviewDate": "2021-04-06",
      "contact": [ {
        "telecom": [ {
          "system": "phone",
          "value": "07777 888888"
        } ]
      } ],
      "subjectType": [ "Patient" ]
    }
  }, {
    "fullUrl": "urn:uuid:bc64718a-057a-4adc-ac51-b5ee47080a8e",
    "resource": {
      "resourceType": "QuestionnaireResponse",
      "id": "bc64718a-057a-4adc-ac51-b5ee47080a8e",
      "identifier": {
        "value": "59263"
      },
      "questionnaire": {
        "reference": "urn:uuid:270eff63-0065-4cf8-bb88-b27b06b65919"
      },
      "status": "completed",
      "subject": {
        "reference": "urn:uuid:10d2b1c9-b9eb-40c2-b083-8c10e5efb3b8"
      },
      "context": {
        "reference": "urn:uuid:5286f78c-f196-4d24-b7a4-b3246a450061"
      },
      "authored": "2021-04-06T11:29:26+00:00",
      "item": [ {
        "linkId": "Tx221804",
        "text": "STRING:transfertofurthermenuquestionestablishedinEntryFlow",
        "answer": [ {
          "valueString": "\"present\""
        } ]
      } ]
    }
  }, {
    "fullUrl": "urn:uuid:270eff63-0065-4cf8-bb88-b27b06b65919",
    "resource": {
      "resourceType": "Questionnaire",
      "id": "270eff63-0065-4cf8-bb88-b27b06b65919",
      "identifier": [ {
        "value": "59263"
      } ],
      "version": "2021-04-06T11:29:26.887Z",
      "status": "active",
      "experimental": false,
      "date": "2021-04-06T11:29:26+00:00",
      "publisher": "User ID: 'HADFIELDR' User name: 'Ryan Hadfield' User skill set: 'T3'",
      "lastReviewDate": "2021-04-06",
      "contact": [ {
        "telecom": [ {
          "system": "phone",
          "value": "07777 888888"
        } ]
      } ],
      "subjectType": [ "Patient" ],
      "item": [ {
        "linkId": "59263",
        "prefix": "41",
        "text": "STRING:transfertofurthermenuquestionestablishedinEntryFlow",
        "type": "choice",
        "required": true,
        "repeats": false,
        "option": [ {
          "valueString": "\"present\", Selected: true"
        } ]
      } ]
    }
  }, {
    "fullUrl": "urn:uuid:5baee610-a912-423d-abce-5886c1b36ca0",
    "resource": {
      "resourceType": "QuestionnaireResponse",
      "id": "5baee610-a912-423d-abce-5886c1b36ca0",
      "identifier": {
        "value": "59263"
      },
      "questionnaire": {
        "reference": "urn:uuid:d3eee4dd-bf45-429f-964e-480a87882265"
      },
      "status": "completed",
      "subject": {
        "reference": "urn:uuid:10d2b1c9-b9eb-40c2-b083-8c10e5efb3b8"
      },
      "context": {
        "reference": "urn:uuid:5286f78c-f196-4d24-b7a4-b3246a450061"
      },
      "authored": "2021-04-06T11:29:26+00:00",
      "item": [ {
        "linkId": "Tx224998",
        "text": "SYSTEM_COVIDLEVEL2",
        "answer": [ {
          "valueString": "==\"covidlevel2\""
        } ]
      } ]
    }
  }, {
    "fullUrl": "urn:uuid:d3eee4dd-bf45-429f-964e-480a87882265",
    "resource": {
      "resourceType": "Questionnaire",
      "id": "d3eee4dd-bf45-429f-964e-480a87882265",
      "identifier": [ {
        "value": "59263"
      } ],
      "version": "2021-04-06T11:29:26.887Z",
      "status": "active",
      "experimental": false,
      "date": "2021-04-06T11:29:26+00:00",
      "publisher": "User ID: 'HADFIELDR' User name: 'Ryan Hadfield' User skill set: 'T3'",
      "lastReviewDate": "2021-04-06",
      "contact": [ {
        "telecom": [ {
          "system": "phone",
          "value": "07777 888888"
        } ]
      } ],
      "subjectType": [ "Patient" ],
      "item": [ {
        "linkId": "59263",
        "prefix": "5900",
        "text": "SYSTEM_COVIDLEVEL2",
        "type": "choice",
        "required": true,
        "repeats": false,
        "option": [ {
          "valueString": "==\"covidlevel2\", Selected: true"
        }, {
          "valueString": "*, Selected: false"
        } ]
      } ]
    }
  }, {
    "fullUrl": "urn:uuid:ccb108c5-d6fd-4c88-8fab-51da5948638f",
    "resource": {
      "resourceType": "QuestionnaireResponse",
      "id": "ccb108c5-d6fd-4c88-8fab-51da5948638f",
      "identifier": {
        "value": "59263"
      },
      "questionnaire": {
        "reference": "urn:uuid:85f3a969-f8ae-48ec-b1b2-e85422db625b"
      },
      "status": "completed",
      "subject": {
        "reference": "urn:uuid:10d2b1c9-b9eb-40c2-b083-8c10e5efb3b8"
      },
      "context": {
        "reference": "urn:uuid:5286f78c-f196-4d24-b7a4-b3246a450061"
      },
      "authored": "2021-04-06T11:29:26+00:00",
      "item": [ {
        "linkId": "Tx225069",
        "text": "What is the reason for the contact?",
        "answer": [ {
          "valueString": "a prescription request"
        } ]
      } ]
    }
  }, {
    "fullUrl": "urn:uuid:85f3a969-f8ae-48ec-b1b2-e85422db625b",
    "resource": {
      "resourceType": "Questionnaire",
      "id": "85f3a969-f8ae-48ec-b1b2-e85422db625b",
      "identifier": [ {
        "value": "59263"
      } ],
      "version": "2021-04-06T11:29:26.887Z",
      "status": "active",
      "experimental": false,
      "date": "2021-04-06T11:29:26+00:00",
      "publisher": "User ID: 'HADFIELDR' User name: 'Ryan Hadfield' User skill set: 'T3'",
      "lastReviewDate": "2021-04-06",
      "contact": [ {
        "telecom": [ {
          "system": "phone",
          "value": "07777 888888"
        } ]
      } ],
      "subjectType": [ "Patient" ],
      "item": [ {
        "linkId": "59263",
        "prefix": "6000",
        "text": "What is the reason for the contact?",
        "type": "choice",
        "required": true,
        "repeats": false,
        "option": [ {
          "valueString": "a child protection/vulnerable adult concern (specify), Selected: false"
        }, {
          "valueString": "a social or domestic emergency, Selected: false"
        }, {
          "valueString": "a prescription request, Selected: true"
        }, {
          "valueString": "an appointment request, Selected: false"
        }, {
          "valueString": "a request for health or medication information, Selected: false"
        }, {
          "valueString": "public health alert information, Selected: false"
        } ]
      } ]
    }
  }, {
    "fullUrl": "urn:uuid:a2fe900f-66ff-4384-a570-0f909b50d60f",
    "resource": {
      "resourceType": "QuestionnaireResponse",
      "id": "a2fe900f-66ff-4384-a570-0f909b50d60f",
      "identifier": {
        "value": "59263"
      },
      "questionnaire": {
        "reference": "urn:uuid:29b1fa71-1e8a-457a-9010-8a504a86f50f"
      },
      "status": "completed",
      "subject": {
        "reference": "urn:uuid:10d2b1c9-b9eb-40c2-b083-8c10e5efb3b8"
      },
      "context": {
        "reference": "urn:uuid:5286f78c-f196-4d24-b7a4-b3246a450061"
      },
      "authored": "2021-04-06T11:29:26+00:00",
      "item": [ {
        "linkId": "Tx220957",
        "text": "Is this contact about a new or worsening illness?",
        "answer": [ {
          "valueString": "no"
        } ]
      } ]
    }
  }, {
    "fullUrl": "urn:uuid:29b1fa71-1e8a-457a-9010-8a504a86f50f",
    "resource": {
      "resourceType": "Questionnaire",
      "id": "29b1fa71-1e8a-457a-9010-8a504a86f50f",
      "identifier": [ {
        "value": "59263"
      } ],
      "version": "2021-04-06T11:29:26.887Z",
      "status": "active",
      "experimental": false,
      "date": "2021-04-06T11:29:26+00:00",
      "publisher": "User ID: 'HADFIELDR' User name: 'Ryan Hadfield' User skill set: 'T3'",
      "lastReviewDate": "2021-04-06",
      "contact": [ {
        "telecom": [ {
          "system": "phone",
          "value": "07777 888888"
        } ]
      } ],
      "subjectType": [ "Patient" ],
      "item": [ {
        "linkId": "59263",
        "prefix": "1400",
        "text": "Is this contact about a new or worsening illness?",
        "type": "choice",
        "required": true,
        "repeats": false,
        "option": [ {
          "valueString": "yes, Selected: false"
        }, {
          "valueString": "not sure, Selected: false"
        }, {
          "valueString": "no, Selected: true"
        } ]
      } ]
    }
  }, {
    "fullUrl": "urn:uuid:3b7cd737-7cad-4542-a6d0-bc74b2ecb7b7",
    "resource": {
      "resourceType": "QuestionnaireResponse",
      "id": "3b7cd737-7cad-4542-a6d0-bc74b2ecb7b7",
      "identifier": {
        "value": "59263"
      },
      "questionnaire": {
        "reference": "urn:uuid:30efb5bf-6aac-47ae-8d09-95dd156a8a7b"
      },
      "status": "completed",
      "subject": {
        "reference": "urn:uuid:10d2b1c9-b9eb-40c2-b083-8c10e5efb3b8"
      },
      "context": {
        "reference": "urn:uuid:5286f78c-f196-4d24-b7a4-b3246a450061"
      },
      "authored": "2021-04-06T11:29:26+00:00",
      "item": [ {
        "linkId": "Tx221352",
        "text": "Have you got enough medication to last until the surgery opens?",
        "answer": [ {
          "valueString": "no"
        } ]
      } ]
    }
  }, {
    "fullUrl": "urn:uuid:30efb5bf-6aac-47ae-8d09-95dd156a8a7b",
    "resource": {
      "resourceType": "Questionnaire",
      "id": "30efb5bf-6aac-47ae-8d09-95dd156a8a7b",
      "identifier": [ {
        "value": "59263"
      } ],
      "version": "2021-04-06T11:29:26.887Z",
      "status": "active",
      "experimental": false,
      "date": "2021-04-06T11:29:26+00:00",
      "publisher": "User ID: 'HADFIELDR' User name: 'Ryan Hadfield' User skill set: 'T3'",
      "lastReviewDate": "2021-04-06",
      "contact": [ {
        "telecom": [ {
          "system": "phone",
          "value": "07777 888888"
        } ]
      } ],
      "subjectType": [ "Patient" ],
      "item": [ {
        "linkId": "59263",
        "prefix": "1500",
        "text": "Have you got enough medication to last until the surgery opens?",
        "type": "choice",
        "required": true,
        "repeats": false,
        "option": [ {
          "valueString": "yes, Selected: false"
        }, {
          "valueString": "not sure, Selected: false"
        }, {
          "valueString": "no, Selected: true"
        } ]
      } ]
    }
  }, {
    "fullUrl": "urn:uuid:1c8eddda-817e-4f16-8ae5-ef91a6d07ec2",
    "resource": {
      "resourceType": "QuestionnaireResponse",
      "id": "1c8eddda-817e-4f16-8ae5-ef91a6d07ec2",
      "identifier": {
        "value": "59263"
      },
      "questionnaire": {
        "reference": "urn:uuid:07ae212f-1370-4918-910d-49e1706c56ea"
      },
      "status": "completed",
      "subject": {
        "reference": "urn:uuid:10d2b1c9-b9eb-40c2-b083-8c10e5efb3b8"
      },
      "context": {
        "reference": "urn:uuid:5286f78c-f196-4d24-b7a4-b3246a450061"
      },
      "authored": "2021-04-06T11:29:26+00:00"
    }
  }, {
    "fullUrl": "urn:uuid:07ae212f-1370-4918-910d-49e1706c56ea",
    "resource": {
      "resourceType": "Questionnaire",
      "id": "07ae212f-1370-4918-910d-49e1706c56ea",
      "identifier": [ {
        "value": "59263"
      } ],
      "version": "2021-04-06T11:29:26.887Z",
      "status": "active",
      "experimental": false,
      "date": "2021-04-06T11:29:26+00:00",
      "publisher": "User ID: 'HADFIELDR' User name: 'Ryan Hadfield' User skill set: 'T3'",
      "lastReviewDate": "2021-04-06",
      "contact": [ {
        "telecom": [ {
          "system": "phone",
          "value": "07777 888888"
        } ]
      } ],
      "subjectType": [ "Patient" ]
    }
  }, {
    "fullUrl": "urn:uuid:898c2b92-d5bc-4df0-994d-a1da6399107d",
    "resource": {
      "resourceType": "QuestionnaireResponse",
      "id": "898c2b92-d5bc-4df0-994d-a1da6399107d",
      "identifier": {
        "value": "59263"
      },
      "questionnaire": {
        "reference": "urn:uuid:d7eeced6-b759-4120-bf01-0ef13e340aaa"
      },
      "status": "completed",
      "subject": {
        "reference": "urn:uuid:10d2b1c9-b9eb-40c2-b083-8c10e5efb3b8"
      },
      "context": {
        "reference": "urn:uuid:5286f78c-f196-4d24-b7a4-b3246a450061"
      },
      "authored": "2021-04-06T11:29:26+00:00",
      "item": [ {
        "linkId": "Tx224231",
        "text": "FROM WHAT YOU HAVE HEARD IS A CONSULTATION WITH A PRESCRIBER NEEDED?",
        "answer": [ {
          "valueString": "no"
        } ]
      } ]
    }
  }, {
    "fullUrl": "urn:uuid:d7eeced6-b759-4120-bf01-0ef13e340aaa",
    "resource": {
      "resourceType": "Questionnaire",
      "id": "d7eeced6-b759-4120-bf01-0ef13e340aaa",
      "identifier": [ {
        "value": "59263"
      } ],
      "version": "2021-04-06T11:29:26.887Z",
      "status": "active",
      "experimental": false,
      "date": "2021-04-06T11:29:26+00:00",
      "publisher": "User ID: 'HADFIELDR' User name: 'Ryan Hadfield' User skill set: 'T3'",
      "lastReviewDate": "2021-04-06",
      "contact": [ {
        "telecom": [ {
          "system": "phone",
          "value": "07777 888888"
        } ]
      } ],
      "subjectType": [ "Patient" ],
      "item": [ {
        "linkId": "59263",
        "prefix": "0",
        "text": "FROM WHAT YOU HAVE HEARD IS A CONSULTATION WITH A PRESCRIBER NEEDED?",
        "type": "choice",
        "required": true,
        "repeats": false,
        "option": [ {
          "valueString": "yes, Selected: false"
        }, {
          "valueString": "not sure, Selected: false"
        }, {
          "valueString": "no, Selected: true"
        } ]
      } ]
    }
  }, {
    "fullUrl": "urn:uuid:6307e5b9-5d4a-4349-a8af-f8deab4992f6",
    "resource": {
      "resourceType": "QuestionnaireResponse",
      "id": "6307e5b9-5d4a-4349-a8af-f8deab4992f6",
      "identifier": {
        "value": "59263"
      },
      "questionnaire": {
        "reference": "urn:uuid:a404b4d2-b8cc-4050-85eb-0f80d82eb9e6"
      },
      "status": "completed",
      "subject": {
        "reference": "urn:uuid:10d2b1c9-b9eb-40c2-b083-8c10e5efb3b8"
      },
      "context": {
        "reference": "urn:uuid:5286f78c-f196-4d24-b7a4-b3246a450061"
      },
      "authored": "2021-04-06T11:29:26+00:00",
      "item": [ {
        "linkId": "Tx222687",
        "text": "Have you got any of the medication available at the moment?",
        "answer": [ {
          "valueString": "no"
        } ]
      } ]
    }
  }, {
    "fullUrl": "urn:uuid:a404b4d2-b8cc-4050-85eb-0f80d82eb9e6",
    "resource": {
      "resourceType": "Questionnaire",
      "id": "a404b4d2-b8cc-4050-85eb-0f80d82eb9e6",
      "identifier": [ {
        "value": "59263"
      } ],
      "version": "2021-04-06T11:29:26.887Z",
      "status": "active",
      "experimental": false,
      "date": "2021-04-06T11:29:26+00:00",
      "publisher": "User ID: 'HADFIELDR' User name: 'Ryan Hadfield' User skill set: 'T3'",
      "lastReviewDate": "2021-04-06",
      "contact": [ {
        "telecom": [ {
          "system": "phone",
          "value": "07777 888888"
        } ]
      } ],
      "subjectType": [ "Patient" ],
      "item": [ {
        "linkId": "59263",
        "prefix": "200",
        "text": "Have you got any of the medication available at the moment?",
        "type": "choice",
        "required": true,
        "repeats": false,
        "option": [ {
          "valueString": "yes, Selected: false"
        }, {
          "valueString": "not sure, Selected: false"
        }, {
          "valueString": "no, Selected: true"
        } ]
      } ]
    }
  }, {
    "fullUrl": "urn:uuid:637b21f5-c676-46e3-ae42-6e610f9b6db6",
    "resource": {
      "resourceType": "QuestionnaireResponse",
      "id": "637b21f5-c676-46e3-ae42-6e610f9b6db6",
      "identifier": {
        "value": "59263"
      },
      "questionnaire": {
        "reference": "urn:uuid:2fb4e6a0-9cd9-4e0e-bc9a-0c02354c5ec0"
      },
      "status": "completed",
      "subject": {
        "reference": "urn:uuid:10d2b1c9-b9eb-40c2-b083-8c10e5efb3b8"
      },
      "context": {
        "reference": "urn:uuid:5286f78c-f196-4d24-b7a4-b3246a450061"
      },
      "authored": "2021-04-06T11:29:26+00:00",
      "item": [ {
        "linkId": "Tx221367",
        "text": "When is the next dose due?",
        "answer": [ {
          "valueString": "within the next 12 hours"
        } ]
      } ]
    }
  }, {
    "fullUrl": "urn:uuid:2fb4e6a0-9cd9-4e0e-bc9a-0c02354c5ec0",
    "resource": {
      "resourceType": "Questionnaire",
      "id": "2fb4e6a0-9cd9-4e0e-bc9a-0c02354c5ec0",
      "identifier": [ {
        "value": "59263"
      } ],
      "version": "2021-04-06T11:29:26.887Z",
      "status": "active",
      "experimental": false,
      "date": "2021-04-06T11:29:26+00:00",
      "publisher": "User ID: 'HADFIELDR' User name: 'Ryan Hadfield' User skill set: 'T3'",
      "lastReviewDate": "2021-04-06",
      "contact": [ {
        "telecom": [ {
          "system": "phone",
          "value": "07777 888888"
        } ]
      } ],
      "subjectType": [ "Patient" ],
      "item": [ {
        "linkId": "59263",
        "prefix": "100",
        "text": "When is the next dose due?",
        "type": "choice",
        "required": true,
        "repeats": false,
        "option": [ {
          "valueString": "within the next 2 hours, Selected: false"
        }, {
          "valueString": "within the next 6 hours, Selected: false"
        }, {
          "valueString": "within the next 12 hours, Selected: true"
        }, {
          "valueString": "over 12 hours time, Selected: false"
        }, {
          "valueString": "not sure, Selected: false"
        } ]
      } ]
    }
  }, {
    "fullUrl": "urn:uuid:95eeed69-0f2a-4dba-8fff-5a91d846aa1d",
    "resource": {
      "resourceType": "QuestionnaireResponse",
      "id": "95eeed69-0f2a-4dba-8fff-5a91d846aa1d",
      "identifier": {
        "value": "59263"
      },
      "questionnaire": {
        "reference": "urn:uuid:7dbb80a4-d3ae-4869-8e71-a0306c68ec3f"
      },
      "status": "completed",
      "subject": {
        "reference": "urn:uuid:10d2b1c9-b9eb-40c2-b083-8c10e5efb3b8"
      },
      "context": {
        "reference": "urn:uuid:5286f78c-f196-4d24-b7a4-b3246a450061"
      },
      "authored": "2021-04-06T11:29:26+00:00",
      "item": [ {
        "linkId": "Tx223441",
        "text": "STRING:SDPCRepeatPrescription",
        "answer": [ {
          "valueString": "\"PC repeat prescription\""
        } ]
      } ]
    }
  }, {
    "fullUrl": "urn:uuid:7dbb80a4-d3ae-4869-8e71-a0306c68ec3f",
    "resource": {
      "resourceType": "Questionnaire",
      "id": "7dbb80a4-d3ae-4869-8e71-a0306c68ec3f",
      "identifier": [ {
        "value": "59263"
      } ],
      "version": "2021-04-06T11:29:26.887Z",
      "status": "active",
      "experimental": false,
      "date": "2021-04-06T11:29:26+00:00",
      "publisher": "User ID: 'HADFIELDR' User name: 'Ryan Hadfield' User skill set: 'T3'",
      "lastReviewDate": "2021-04-06",
      "contact": [ {
        "telecom": [ {
          "system": "phone",
          "value": "07777 888888"
        } ]
      } ],
      "subjectType": [ "Patient" ],
      "item": [ {
        "linkId": "59263",
        "prefix": "1200",
        "text": "STRING:SDPCRepeatPrescription",
        "type": "choice",
        "required": true,
        "repeats": false,
        "option": [ {
          "valueString": "\"PC repeat prescription\", Selected: true"
        } ]
      } ]
    }
  }, {
    "fullUrl": "urn:uuid:871cba62-cded-4bb9-93bd-f27b402632c2",
    "resource": {
      "resourceType": "QuestionnaireResponse",
      "id": "871cba62-cded-4bb9-93bd-f27b402632c2",
      "identifier": {
        "value": "59263"
      },
      "questionnaire": {
        "reference": "urn:uuid:bb6a5ee1-6fe8-4446-a16a-00933b939434"
      },
      "status": "completed",
      "subject": {
        "reference": "urn:uuid:10d2b1c9-b9eb-40c2-b083-8c10e5efb3b8"
      },
      "context": {
        "reference": "urn:uuid:5286f78c-f196-4d24-b7a4-b3246a450061"
      },
      "authored": "2021-04-06T11:29:26+00:00"
    }
  }, {
    "fullUrl": "urn:uuid:bb6a5ee1-6fe8-4446-a16a-00933b939434",
    "resource": {
      "resourceType": "Questionnaire",
      "id": "bb6a5ee1-6fe8-4446-a16a-00933b939434",
      "identifier": [ {
        "value": "59263"
      } ],
      "version": "2021-04-06T11:29:26.887Z",
      "status": "active",
      "experimental": false,
      "date": "2021-04-06T11:29:26+00:00",
      "publisher": "User ID: 'HADFIELDR' User name: 'Ryan Hadfield' User skill set: 'T3'",
      "lastReviewDate": "2021-04-06",
      "contact": [ {
        "telecom": [ {
          "system": "phone",
          "value": "07777 888888"
        } ]
      } ],
      "subjectType": [ "Patient" ]
    }
  }, {
    "fullUrl": "urn:uuid:6bd05c36-de38-4703-9c03-549f25fb39d6",
    "resource": {
      "resourceType": "QuestionnaireResponse",
      "id": "6bd05c36-de38-4703-9c03-549f25fb39d6",
      "identifier": {
        "value": "59263"
      },
      "questionnaire": {
        "reference": "urn:uuid:ef9d828d-a22b-440c-94bd-8257aa14cbee"
      },
      "status": "completed",
      "subject": {
        "reference": "urn:uuid:10d2b1c9-b9eb-40c2-b083-8c10e5efb3b8"
      },
      "context": {
        "reference": "urn:uuid:5286f78c-f196-4d24-b7a4-b3246a450061"
      },
      "authored": "2021-04-06T11:29:26+00:00",
      "item": [ {
        "linkId": "Tx220074",
        "text": "What is the reason for the contact?",
        "answer": [ {
          "valueString": "an injury or other health problem"
        } ]
      } ]
    }
  }, {
    "fullUrl": "urn:uuid:ef9d828d-a22b-440c-94bd-8257aa14cbee",
    "resource": {
      "resourceType": "Questionnaire",
      "id": "ef9d828d-a22b-440c-94bd-8257aa14cbee",
      "identifier": [ {
        "value": "59263"
      } ],
      "version": "2021-04-06T11:29:26.887Z",
      "status": "active",
      "experimental": false,
      "date": "2021-04-06T11:29:26+00:00",
      "publisher": "User ID: 'HADFIELDR' User name: 'Ryan Hadfield' User skill set: 'T3'",
      "lastReviewDate": "2021-04-06",
      "contact": [ {
        "telecom": [ {
          "system": "phone",
          "value": "07777 888888"
        } ]
      } ],
      "subjectType": [ "Patient" ],
      "item": [ {
        "linkId": "59263",
        "prefix": "5",
        "text": "What is the reason for the contact?",
        "type": "choice",
        "required": true,
        "repeats": false,
        "option": [ {
          "valueString": "an injury or other health problem, Selected: true"
        }, {
          "valueString": "labour or childbirth, Selected: false"
        }, {
          "valueString": "a need to access another healthcare service, Selected: false"
        }, {
          "valueString": "a healthcare professional requesting contact with another clinician, Selected: false"
        }, {
          "valueString": "a report of results or tests, Selected: false"
        }, {
          "valueString": "a possible failure of contraception, Selected: false"
        }, {
          "valueString": "more, Selected: false"
        } ]
      } ]
    }
  }, {
    "fullUrl": "urn:uuid:fec23653-d3d6-4857-9190-072126b00bf9",
    "resource": {
      "resourceType": "QuestionnaireResponse",
      "id": "fec23653-d3d6-4857-9190-072126b00bf9",
      "identifier": {
        "value": "59263"
      },
      "questionnaire": {
        "reference": "urn:uuid:fc5562ce-f375-4ac8-a06c-95a6e0d98f74"
      },
      "status": "completed",
      "subject": {
        "reference": "urn:uuid:10d2b1c9-b9eb-40c2-b083-8c10e5efb3b8"
      },
      "context": {
        "reference": "urn:uuid:5286f78c-f196-4d24-b7a4-b3246a450061"
      },
      "authored": "2021-04-06T11:29:26+00:00",
      "item": [ {
        "linkId": "Tx221807",
        "text": "STRING:to'Immediatethreatstolife(SPA/OOHversion)'-'Majorbloodloss'stem",
        "answer": [ {
          "valueString": "\"present\""
        } ]
      } ]
    }
  }, {
    "fullUrl": "urn:uuid:fc5562ce-f375-4ac8-a06c-95a6e0d98f74",
    "resource": {
      "resourceType": "Questionnaire",
      "id": "fc5562ce-f375-4ac8-a06c-95a6e0d98f74",
      "identifier": [ {
        "value": "59263"
      } ],
      "version": "2021-04-06T11:29:26.887Z",
      "status": "active",
      "experimental": false,
      "date": "2021-04-06T11:29:26+00:00",
      "publisher": "User ID: 'HADFIELDR' User name: 'Ryan Hadfield' User skill set: 'T3'",
      "lastReviewDate": "2021-04-06",
      "contact": [ {
        "telecom": [ {
          "system": "phone",
          "value": "07777 888888"
        } ]
      } ],
      "subjectType": [ "Patient" ],
      "item": [ {
        "linkId": "59263",
        "prefix": "200",
        "text": "STRING:to'Immediatethreatstolife(SPA/OOHversion)'-'Majorbloodloss'stem",
        "type": "choice",
        "required": true,
        "repeats": false,
        "option": [ {
          "valueString": "\"present\", Selected: true"
        } ]
      } ]
    }
  }, {
    "fullUrl": "urn:uuid:7f51a172-924d-4e35-a8d5-2f1cd5ad5c51",
    "resource": {
      "resourceType": "QuestionnaireResponse",
      "id": "7f51a172-924d-4e35-a8d5-2f1cd5ad5c51",
      "identifier": {
        "value": "59263"
      },
      "questionnaire": {
        "reference": "urn:uuid:aa05bdad-baee-4c33-9998-bfc60842339e"
      },
      "status": "completed",
      "subject": {
        "reference": "urn:uuid:10d2b1c9-b9eb-40c2-b083-8c10e5efb3b8"
      },
      "context": {
        "reference": "urn:uuid:5286f78c-f196-4d24-b7a4-b3246a450061"
      },
      "authored": "2021-04-06T11:29:26+00:00"
    }
  }, {
    "fullUrl": "urn:uuid:aa05bdad-baee-4c33-9998-bfc60842339e",
    "resource": {
      "resourceType": "Questionnaire",
      "id": "aa05bdad-baee-4c33-9998-bfc60842339e",
      "identifier": [ {
        "value": "59263"
      } ],
      "version": "2021-04-06T11:29:26.887Z",
      "status": "active",
      "experimental": false,
      "date": "2021-04-06T11:29:26+00:00",
      "publisher": "User ID: 'HADFIELDR' User name: 'Ryan Hadfield' User skill set: 'T3'",
      "lastReviewDate": "2021-04-06",
      "contact": [ {
        "telecom": [ {
          "system": "phone",
          "value": "07777 888888"
        } ]
      } ],
      "subjectType": [ "Patient" ]
    }
  }, {
    "fullUrl": "urn:uuid:dacc39ad-b390-4244-a493-70b403720cb4",
    "resource": {
      "resourceType": "QuestionnaireResponse",
      "id": "dacc39ad-b390-4244-a493-70b403720cb4",
      "identifier": {
        "value": "59263"
      },
      "questionnaire": {
        "reference": "urn:uuid:716e703b-8628-404a-a0dd-ddaabfea214a"
      },
      "status": "completed",
      "subject": {
        "reference": "urn:uuid:10d2b1c9-b9eb-40c2-b083-8c10e5efb3b8"
      },
      "context": {
        "reference": "urn:uuid:5286f78c-f196-4d24-b7a4-b3246a450061"
      },
      "authored": "2021-04-06T11:29:26+00:00",
      "item": [ {
        "linkId": "Tx221799",
        "text": "STRING:injury,illnessorlabourestablishedinEntryFlow",
        "answer": [ {
          "valueString": "\"present\""
        } ]
      } ]
    }
  }, {
    "fullUrl": "urn:uuid:716e703b-8628-404a-a0dd-ddaabfea214a",
    "resource": {
      "resourceType": "Questionnaire",
      "id": "716e703b-8628-404a-a0dd-ddaabfea214a",
      "identifier": [ {
        "value": "59263"
      } ],
      "version": "2021-04-06T11:29:26.887Z",
      "status": "active",
      "experimental": false,
      "date": "2021-04-06T11:29:26+00:00",
      "publisher": "User ID: 'HADFIELDR' User name: 'Ryan Hadfield' User skill set: 'T3'",
      "lastReviewDate": "2021-04-06",
      "contact": [ {
        "telecom": [ {
          "system": "phone",
          "value": "07777 888888"
        } ]
      } ],
      "subjectType": [ "Patient" ],
      "item": [ {
        "linkId": "59263",
        "prefix": "0",
        "text": "STRING:injury,illnessorlabourestablishedinEntryFlow",
        "type": "choice",
        "required": true,
        "repeats": false,
        "option": [ {
          "valueString": "\"present\", Selected: true"
        } ]
      } ]
    }
  }, {
    "fullUrl": "urn:uuid:690b65d8-ab76-428c-adcd-7bd4c7efeb82",
    "resource": {
      "resourceType": "QuestionnaireResponse",
      "id": "690b65d8-ab76-428c-adcd-7bd4c7efeb82",
      "identifier": {
        "value": "59263"
      },
      "questionnaire": {
        "reference": "urn:uuid:095f5a5a-3984-4a46-b946-fd7edf812555"
      },
      "status": "completed",
      "subject": {
        "reference": "urn:uuid:10d2b1c9-b9eb-40c2-b083-8c10e5efb3b8"
      },
      "context": {
        "reference": "urn:uuid:5286f78c-f196-4d24-b7a4-b3246a450061"
      },
      "authored": "2021-04-06T11:29:26+00:00",
      "item": [ {
        "linkId": "Tx224120",
        "text": "Have you been bleeding RED BLOOD very heavily IN THE LAST 2 HOURS?",
        "answer": [ {
          "valueString": "no"
        } ]
      } ]
    }
  }, {
    "fullUrl": "urn:uuid:095f5a5a-3984-4a46-b946-fd7edf812555",
    "resource": {
      "resourceType": "Questionnaire",
      "id": "095f5a5a-3984-4a46-b946-fd7edf812555",
      "identifier": [ {
        "value": "59263"
      } ],
      "version": "2021-04-06T11:29:26.887Z",
      "status": "active",
      "experimental": false,
      "date": "2021-04-06T11:29:26+00:00",
      "publisher": "User ID: 'HADFIELDR' User name: 'Ryan Hadfield' User skill set: 'T3'",
      "lastReviewDate": "2021-04-06",
      "contact": [ {
        "telecom": [ {
          "system": "phone",
          "value": "07777 888888"
        } ]
      } ],
      "subjectType": [ "Patient" ],
      "item": [ {
        "linkId": "59263",
        "prefix": "10100",
        "text": "Have you been bleeding RED BLOOD very heavily IN THE LAST 2 HOURS?",
        "type": "choice",
        "required": true,
        "repeats": false,
        "option": [ {
          "valueString": "yes, Selected: false"
        }, {
          "valueString": "not sure, Selected: false"
        }, {
          "valueString": "no, Selected: true"
        } ]
      } ]
    }
  }, {
    "fullUrl": "urn:uuid:5b027ae5-e947-45cf-9d76-7f00312d53a5",
    "resource": {
      "resourceType": "QuestionnaireResponse",
      "id": "5b027ae5-e947-45cf-9d76-7f00312d53a5",
      "identifier": {
        "value": "59263"
      },
      "questionnaire": {
        "reference": "urn:uuid:3a013f12-eb65-49b8-bd00-3655f2767ca3"
      },
      "status": "completed",
      "subject": {
        "reference": "urn:uuid:10d2b1c9-b9eb-40c2-b083-8c10e5efb3b8"
      },
      "context": {
        "reference": "urn:uuid:5286f78c-f196-4d24-b7a4-b3246a450061"
      },
      "authored": "2021-04-06T11:29:26+00:00",
      "item": [ {
        "linkId": "Tx221343",
        "text": "SocialConcernsExcluded",
        "answer": [ {
          "valueString": "*"
        } ]
      } ]
    }
  }, {
    "fullUrl": "urn:uuid:3a013f12-eb65-49b8-bd00-3655f2767ca3",
    "resource": {
      "resourceType": "Questionnaire",
      "id": "3a013f12-eb65-49b8-bd00-3655f2767ca3",
      "identifier": [ {
        "value": "59263"
      } ],
      "version": "2021-04-06T11:29:26.887Z",
      "status": "active",
      "experimental": false,
      "date": "2021-04-06T11:29:26+00:00",
      "publisher": "User ID: 'HADFIELDR' User name: 'Ryan Hadfield' User skill set: 'T3'",
      "lastReviewDate": "2021-04-06",
      "contact": [ {
        "telecom": [ {
          "system": "phone",
          "value": "07777 888888"
        } ]
      } ],
      "subjectType": [ "Patient" ],
      "item": [ {
        "linkId": "59263",
        "prefix": "1100",
        "text": "SocialConcernsExcluded",
        "type": "choice",
        "required": true,
        "repeats": false,
        "option": [ {
          "valueString": "==\"present\", Selected: false"
        }, {
          "valueString": "*, Selected: true"
        } ]
      } ]
    }
  }, {
    "fullUrl": "urn:uuid:7476f993-2b31-4e64-b571-5a68aa10ac47",
    "resource": {
      "resourceType": "QuestionnaireResponse",
      "id": "7476f993-2b31-4e64-b571-5a68aa10ac47",
      "identifier": {
        "value": "59263"
      },
      "questionnaire": {
        "reference": "urn:uuid:54553cb7-0c3e-499b-921e-17941f0e9696"
      },
      "status": "completed",
      "subject": {
        "reference": "urn:uuid:10d2b1c9-b9eb-40c2-b083-8c10e5efb3b8"
      },
      "context": {
        "reference": "urn:uuid:5286f78c-f196-4d24-b7a4-b3246a450061"
      },
      "authored": "2021-04-06T11:29:26+00:00",
      "item": [ {
        "linkId": "Tx130011",
        "text": "What is the main problem?"
      } ]
    }
  }, {
    "fullUrl": "urn:uuid:54553cb7-0c3e-499b-921e-17941f0e9696",
    "resource": {
      "resourceType": "Questionnaire",
      "id": "54553cb7-0c3e-499b-921e-17941f0e9696",
      "identifier": [ {
        "value": "59263"
      } ],
      "version": "2021-04-06T11:29:26.887Z",
      "status": "active",
      "experimental": false,
      "date": "2021-04-06T11:29:26+00:00",
      "publisher": "User ID: 'HADFIELDR' User name: 'Ryan Hadfield' User skill set: 'T3'",
      "lastReviewDate": "2021-04-06",
      "contact": [ {
        "telecom": [ {
          "system": "phone",
          "value": "07777 888888"
        } ]
      } ],
      "subjectType": [ "Patient" ],
      "item": [ {
        "linkId": "59263",
        "prefix": "2300",
        "text": "What is the main problem?",
        "type": "choice",
        "required": true,
        "repeats": false,
        "option": [ {
          "valueString": "the individual has been told to follow a particular course of action (specify), Selected: false"
        }, {
          "valueString": "the individual is an identified frequent caller, Selected: false"
        }, {
          "valueString": "injury (specify), Selected: false"
        }, {
          "valueString": "illness or other health problem (specify), Selected: false"
        }, {
          "valueString": "child protection/vulnerable adult concern, Selected: false"
        }, {
          "valueString": "social or domestic emergency, Selected: false"
        }, {
          "valueString": "the environment potentially poses an immediate threat to life (specify), Selected: false"
        } ]
      } ]
    }
  }, {
    "fullUrl": "urn:uuid:7419d5cc-b35f-47fb-bb08-b6e2621cf74f",
    "resource": {
      "resourceType": "QuestionnaireResponse",
      "id": "7419d5cc-b35f-47fb-bb08-b6e2621cf74f",
      "identifier": {
        "value": "59263"
      },
      "questionnaire": {
        "reference": "urn:uuid:147f869c-6747-4074-9b9e-acd2317df92a"
      },
      "status": "completed",
      "subject": {
        "reference": "urn:uuid:10d2b1c9-b9eb-40c2-b083-8c10e5efb3b8"
      },
      "context": {
        "reference": "urn:uuid:5286f78c-f196-4d24-b7a4-b3246a450061"
      },
      "authored": "2021-04-06T11:29:26+00:00",
      "item": [ {
        "linkId": "Tx220074",
        "text": "What is the reason for the contact?",
        "answer": [ {
          "valueString": "more"
        } ]
      } ]
    }
  }, {
    "fullUrl": "urn:uuid:147f869c-6747-4074-9b9e-acd2317df92a",
    "resource": {
      "resourceType": "Questionnaire",
      "id": "147f869c-6747-4074-9b9e-acd2317df92a",
      "identifier": [ {
        "value": "59263"
      } ],
      "version": "2021-04-06T11:29:26.887Z",
      "status": "active",
      "experimental": false,
      "date": "2021-04-06T11:29:26+00:00",
      "publisher": "User ID: 'HADFIELDR' User name: 'Ryan Hadfield' User skill set: 'T3'",
      "lastReviewDate": "2021-04-06",
      "contact": [ {
        "telecom": [ {
          "system": "phone",
          "value": "07777 888888"
        } ]
      } ],
      "subjectType": [ "Patient" ],
      "item": [ {
        "linkId": "59263",
        "prefix": "5",
        "text": "What is the reason for the contact?",
        "type": "choice",
        "required": true,
        "repeats": false,
        "option": [ {
          "valueString": "an injury or other health problem, Selected: false"
        }, {
          "valueString": "labour or childbirth, Selected: false"
        }, {
          "valueString": "a need to access another healthcare service, Selected: false"
        }, {
          "valueString": "a healthcare professional requesting contact with another clinician, Selected: false"
        }, {
          "valueString": "a report of results or tests, Selected: false"
        }, {
          "valueString": "a possible failure of contraception, Selected: false"
        }, {
          "valueString": "more, Selected: true"
        } ]
      } ]
    }
  }, {
    "fullUrl": "urn:uuid:b896fae5-a9a1-413e-ae89-05492c4d0658",
    "resource": {
      "resourceType": "QuestionnaireResponse",
      "id": "b896fae5-a9a1-413e-ae89-05492c4d0658",
      "identifier": {
        "value": "59263"
      },
      "questionnaire": {
        "reference": "urn:uuid:5b86c23b-aa8b-4529-806e-a16d9469097a"
      },
      "status": "completed",
      "subject": {
        "reference": "urn:uuid:10d2b1c9-b9eb-40c2-b083-8c10e5efb3b8"
      },
      "context": {
        "reference": "urn:uuid:5286f78c-f196-4d24-b7a4-b3246a450061"
      },
      "authored": "2021-04-06T11:29:26+00:00",
      "item": [ {
        "linkId": "Tx221793",
        "text": "STRING:to'Social&information'-further'Callreason'menu",
        "answer": [ {
          "valueString": "\"present\""
        } ]
      } ]
    }
  }, {
    "fullUrl": "urn:uuid:5b86c23b-aa8b-4529-806e-a16d9469097a",
    "resource": {
      "resourceType": "Questionnaire",
      "id": "5b86c23b-aa8b-4529-806e-a16d9469097a",
      "identifier": [ {
        "value": "59263"
      } ],
      "version": "2021-04-06T11:29:26.887Z",
      "status": "active",
      "experimental": false,
      "date": "2021-04-06T11:29:26+00:00",
      "publisher": "User ID: 'HADFIELDR' User name: 'Ryan Hadfield' User skill set: 'T3'",
      "lastReviewDate": "2021-04-06",
      "contact": [ {
        "telecom": [ {
          "system": "phone",
          "value": "07777 888888"
        } ]
      } ],
      "subjectType": [ "Patient" ],
      "item": [ {
        "linkId": "59263",
        "prefix": "600",
        "text": "STRING:to'Social&information'-further'Callreason'menu",
        "type": "choice",
        "required": true,
        "repeats": false,
        "option": [ {
          "valueString": "\"present\", Selected: true"
        } ]
      } ]
    }
  }, {
    "fullUrl": "urn:uuid:0a7dd7ad-cafc-490e-b981-e4596c40c8e5",
    "resource": {
      "resourceType": "QuestionnaireResponse",
      "id": "0a7dd7ad-cafc-490e-b981-e4596c40c8e5",
      "identifier": {
        "value": "59263"
      },
      "questionnaire": {
        "reference": "urn:uuid:bcaf37bc-8a43-474c-964b-290b64bbf43b"
      },
      "status": "completed",
      "subject": {
        "reference": "urn:uuid:10d2b1c9-b9eb-40c2-b083-8c10e5efb3b8"
      },
      "context": {
        "reference": "urn:uuid:5286f78c-f196-4d24-b7a4-b3246a450061"
      },
      "authored": "2021-04-06T11:29:26+00:00"
    }
  }, {
    "fullUrl": "urn:uuid:bcaf37bc-8a43-474c-964b-290b64bbf43b",
    "resource": {
      "resourceType": "Questionnaire",
      "id": "bcaf37bc-8a43-474c-964b-290b64bbf43b",
      "identifier": [ {
        "value": "59263"
      } ],
      "version": "2021-04-06T11:29:26.887Z",
      "status": "active",
      "experimental": false,
      "date": "2021-04-06T11:29:26+00:00",
      "publisher": "User ID: 'HADFIELDR' User name: 'Ryan Hadfield' User skill set: 'T3'",
      "lastReviewDate": "2021-04-06",
      "contact": [ {
        "telecom": [ {
          "system": "phone",
          "value": "07777 888888"
        } ]
      } ],
      "subjectType": [ "Patient" ]
    }
  }, {
    "fullUrl": "urn:uuid:d509f440-a579-4966-a372-ce26b20c40a1",
    "resource": {
      "resourceType": "QuestionnaireResponse",
      "id": "d509f440-a579-4966-a372-ce26b20c40a1",
      "identifier": {
        "value": "59263"
      },
      "questionnaire": {
        "reference": "urn:uuid:870f4839-04fa-40b5-8d87-92b78d1e2f88"
      },
      "status": "completed",
      "subject": {
        "reference": "urn:uuid:10d2b1c9-b9eb-40c2-b083-8c10e5efb3b8"
      },
      "context": {
        "reference": "urn:uuid:5286f78c-f196-4d24-b7a4-b3246a450061"
      },
      "authored": "2021-04-06T11:29:26+00:00",
      "item": [ {
        "linkId": "Tx221804",
        "text": "STRING:transfertofurthermenuquestionestablishedinEntryFlow",
        "answer": [ {
          "valueString": "\"present\""
        } ]
      } ]
    }
  }, {
    "fullUrl": "urn:uuid:870f4839-04fa-40b5-8d87-92b78d1e2f88",
    "resource": {
      "resourceType": "Questionnaire",
      "id": "870f4839-04fa-40b5-8d87-92b78d1e2f88",
      "identifier": [ {
        "value": "59263"
      } ],
      "version": "2021-04-06T11:29:26.887Z",
      "status": "active",
      "experimental": false,
      "date": "2021-04-06T11:29:26+00:00",
      "publisher": "User ID: 'HADFIELDR' User name: 'Ryan Hadfield' User skill set: 'T3'",
      "lastReviewDate": "2021-04-06",
      "contact": [ {
        "telecom": [ {
          "system": "phone",
          "value": "07777 888888"
        } ]
      } ],
      "subjectType": [ "Patient" ],
      "item": [ {
        "linkId": "59263",
        "prefix": "41",
        "text": "STRING:transfertofurthermenuquestionestablishedinEntryFlow",
        "type": "choice",
        "required": true,
        "repeats": false,
        "option": [ {
          "valueString": "\"present\", Selected: true"
        } ]
      } ]
    }
  }, {
    "fullUrl": "urn:uuid:6473370b-f6d7-4fd6-8c7e-1bfe39e4fd2d",
    "resource": {
      "resourceType": "QuestionnaireResponse",
      "id": "6473370b-f6d7-4fd6-8c7e-1bfe39e4fd2d",
      "identifier": {
        "value": "59263"
      },
      "questionnaire": {
        "reference": "urn:uuid:03fe6734-a915-427c-a533-5a967e8c6718"
      },
      "status": "completed",
      "subject": {
        "reference": "urn:uuid:10d2b1c9-b9eb-40c2-b083-8c10e5efb3b8"
      },
      "context": {
        "reference": "urn:uuid:5286f78c-f196-4d24-b7a4-b3246a450061"
      },
      "authored": "2021-04-06T11:29:26+00:00",
      "item": [ {
        "linkId": "Tx224998",
        "text": "SYSTEM_COVIDLEVEL2",
        "answer": [ {
          "valueString": "==\"covidlevel2\""
        } ]
      } ]
    }
  }, {
    "fullUrl": "urn:uuid:03fe6734-a915-427c-a533-5a967e8c6718",
    "resource": {
      "resourceType": "Questionnaire",
      "id": "03fe6734-a915-427c-a533-5a967e8c6718",
      "identifier": [ {
        "value": "59263"
      } ],
      "version": "2021-04-06T11:29:26.887Z",
      "status": "active",
      "experimental": false,
      "date": "2021-04-06T11:29:26+00:00",
      "publisher": "User ID: 'HADFIELDR' User name: 'Ryan Hadfield' User skill set: 'T3'",
      "lastReviewDate": "2021-04-06",
      "contact": [ {
        "telecom": [ {
          "system": "phone",
          "value": "07777 888888"
        } ]
      } ],
      "subjectType": [ "Patient" ],
      "item": [ {
        "linkId": "59263",
        "prefix": "5900",
        "text": "SYSTEM_COVIDLEVEL2",
        "type": "choice",
        "required": true,
        "repeats": false,
        "option": [ {
          "valueString": "==\"covidlevel2\", Selected: true"
        }, {
          "valueString": "*, Selected: false"
        } ]
      } ]
    }
  }, {
    "fullUrl": "urn:uuid:6906749e-8b65-4dc2-b886-b5d9e301bc80",
    "resource": {
      "resourceType": "QuestionnaireResponse",
      "id": "6906749e-8b65-4dc2-b886-b5d9e301bc80",
      "identifier": {
        "value": "59263"
      },
      "questionnaire": {
        "reference": "urn:uuid:eb032589-fdb4-40d1-8b42-982c9d1c36c5"
      },
      "status": "completed",
      "subject": {
        "reference": "urn:uuid:10d2b1c9-b9eb-40c2-b083-8c10e5efb3b8"
      },
      "context": {
        "reference": "urn:uuid:5286f78c-f196-4d24-b7a4-b3246a450061"
      },
      "authored": "2021-04-06T11:29:26+00:00",
      "item": [ {
        "linkId": "Tx225069",
        "text": "What is the reason for the contact?",
        "answer": [ {
          "valueString": "a prescription request"
        } ]
      } ]
    }
  }, {
    "fullUrl": "urn:uuid:eb032589-fdb4-40d1-8b42-982c9d1c36c5",
    "resource": {
      "resourceType": "Questionnaire",
      "id": "eb032589-fdb4-40d1-8b42-982c9d1c36c5",
      "identifier": [ {
        "value": "59263"
      } ],
      "version": "2021-04-06T11:29:26.887Z",
      "status": "active",
      "experimental": false,
      "date": "2021-04-06T11:29:26+00:00",
      "publisher": "User ID: 'HADFIELDR' User name: 'Ryan Hadfield' User skill set: 'T3'",
      "lastReviewDate": "2021-04-06",
      "contact": [ {
        "telecom": [ {
          "system": "phone",
          "value": "07777 888888"
        } ]
      } ],
      "subjectType": [ "Patient" ],
      "item": [ {
        "linkId": "59263",
        "prefix": "6000",
        "text": "What is the reason for the contact?",
        "type": "choice",
        "required": true,
        "repeats": false,
        "option": [ {
          "valueString": "a child protection/vulnerable adult concern (specify), Selected: false"
        }, {
          "valueString": "a social or domestic emergency, Selected: false"
        }, {
          "valueString": "a prescription request, Selected: true"
        }, {
          "valueString": "an appointment request, Selected: false"
        }, {
          "valueString": "a request for health or medication information, Selected: false"
        }, {
          "valueString": "public health alert information, Selected: false"
        } ]
      } ]
    }
  }, {
    "fullUrl": "urn:uuid:4569e4d3-26ba-49d8-92ea-2bce370aa60e",
    "resource": {
      "resourceType": "QuestionnaireResponse",
      "id": "4569e4d3-26ba-49d8-92ea-2bce370aa60e",
      "identifier": {
        "value": "59263"
      },
      "questionnaire": {
        "reference": "urn:uuid:35fcd1eb-dfe7-4eb8-b532-837f7b94907c"
      },
      "status": "completed",
      "subject": {
        "reference": "urn:uuid:10d2b1c9-b9eb-40c2-b083-8c10e5efb3b8"
      },
      "context": {
        "reference": "urn:uuid:5286f78c-f196-4d24-b7a4-b3246a450061"
      },
      "authored": "2021-04-06T11:29:26+00:00",
      "item": [ {
        "linkId": "Tx220957",
        "text": "Is this contact about a new or worsening illness?",
        "answer": [ {
          "valueString": "no"
        } ]
      } ]
    }
  }, {
    "fullUrl": "urn:uuid:35fcd1eb-dfe7-4eb8-b532-837f7b94907c",
    "resource": {
      "resourceType": "Questionnaire",
      "id": "35fcd1eb-dfe7-4eb8-b532-837f7b94907c",
      "identifier": [ {
        "value": "59263"
      } ],
      "version": "2021-04-06T11:29:26.887Z",
      "status": "active",
      "experimental": false,
      "date": "2021-04-06T11:29:26+00:00",
      "publisher": "User ID: 'HADFIELDR' User name: 'Ryan Hadfield' User skill set: 'T3'",
      "lastReviewDate": "2021-04-06",
      "contact": [ {
        "telecom": [ {
          "system": "phone",
          "value": "07777 888888"
        } ]
      } ],
      "subjectType": [ "Patient" ],
      "item": [ {
        "linkId": "59263",
        "prefix": "1400",
        "text": "Is this contact about a new or worsening illness?",
        "type": "choice",
        "required": true,
        "repeats": false,
        "option": [ {
          "valueString": "yes, Selected: false"
        }, {
          "valueString": "not sure, Selected: false"
        }, {
          "valueString": "no, Selected: true"
        } ]
      } ]
    }
  }, {
    "fullUrl": "urn:uuid:280bfb56-986c-45d5-8616-537df48fddf8",
    "resource": {
      "resourceType": "QuestionnaireResponse",
      "id": "280bfb56-986c-45d5-8616-537df48fddf8",
      "identifier": {
        "value": "59263"
      },
      "questionnaire": {
        "reference": "urn:uuid:028ada56-6f21-41ce-8391-74ae0f44d1d0"
      },
      "status": "completed",
      "subject": {
        "reference": "urn:uuid:10d2b1c9-b9eb-40c2-b083-8c10e5efb3b8"
      },
      "context": {
        "reference": "urn:uuid:5286f78c-f196-4d24-b7a4-b3246a450061"
      },
      "authored": "2021-04-06T11:29:26+00:00",
      "item": [ {
        "linkId": "Tx221352",
        "text": "Have you got enough medication to last until the surgery opens?",
        "answer": [ {
          "valueString": "no"
        } ]
      } ]
    }
  }, {
    "fullUrl": "urn:uuid:028ada56-6f21-41ce-8391-74ae0f44d1d0",
    "resource": {
      "resourceType": "Questionnaire",
      "id": "028ada56-6f21-41ce-8391-74ae0f44d1d0",
      "identifier": [ {
        "value": "59263"
      } ],
      "version": "2021-04-06T11:29:26.887Z",
      "status": "active",
      "experimental": false,
      "date": "2021-04-06T11:29:26+00:00",
      "publisher": "User ID: 'HADFIELDR' User name: 'Ryan Hadfield' User skill set: 'T3'",
      "lastReviewDate": "2021-04-06",
      "contact": [ {
        "telecom": [ {
          "system": "phone",
          "value": "07777 888888"
        } ]
      } ],
      "subjectType": [ "Patient" ],
      "item": [ {
        "linkId": "59263",
        "prefix": "1500",
        "text": "Have you got enough medication to last until the surgery opens?",
        "type": "choice",
        "required": true,
        "repeats": false,
        "option": [ {
          "valueString": "yes, Selected: false"
        }, {
          "valueString": "not sure, Selected: false"
        }, {
          "valueString": "no, Selected: true"
        } ]
      } ]
    }
  }, {
    "fullUrl": "urn:uuid:2951bde7-fedd-42ce-a2e4-1bc8b3eb08a8",
    "resource": {
      "resourceType": "QuestionnaireResponse",
      "id": "2951bde7-fedd-42ce-a2e4-1bc8b3eb08a8",
      "identifier": {
        "value": "59263"
      },
      "questionnaire": {
        "reference": "urn:uuid:94098d41-01c8-4511-b600-5ad68bbac32b"
      },
      "status": "completed",
      "subject": {
        "reference": "urn:uuid:10d2b1c9-b9eb-40c2-b083-8c10e5efb3b8"
      },
      "context": {
        "reference": "urn:uuid:5286f78c-f196-4d24-b7a4-b3246a450061"
      },
      "authored": "2021-04-06T11:29:26+00:00"
    }
  }, {
    "fullUrl": "urn:uuid:94098d41-01c8-4511-b600-5ad68bbac32b",
    "resource": {
      "resourceType": "Questionnaire",
      "id": "94098d41-01c8-4511-b600-5ad68bbac32b",
      "identifier": [ {
        "value": "59263"
      } ],
      "version": "2021-04-06T11:29:26.887Z",
      "status": "active",
      "experimental": false,
      "date": "2021-04-06T11:29:26+00:00",
      "publisher": "User ID: 'HADFIELDR' User name: 'Ryan Hadfield' User skill set: 'T3'",
      "lastReviewDate": "2021-04-06",
      "contact": [ {
        "telecom": [ {
          "system": "phone",
          "value": "07777 888888"
        } ]
      } ],
      "subjectType": [ "Patient" ]
    }
  }, {
    "fullUrl": "urn:uuid:a077d62a-9269-4a98-9a28-b193e49a3355",
    "resource": {
      "resourceType": "QuestionnaireResponse",
      "id": "a077d62a-9269-4a98-9a28-b193e49a3355",
      "identifier": {
        "value": "59263"
      },
      "questionnaire": {
        "reference": "urn:uuid:72419bd1-9978-4420-a65a-480c5ee2d780"
      },
      "status": "completed",
      "subject": {
        "reference": "urn:uuid:10d2b1c9-b9eb-40c2-b083-8c10e5efb3b8"
      },
      "context": {
        "reference": "urn:uuid:5286f78c-f196-4d24-b7a4-b3246a450061"
      },
      "authored": "2021-04-06T11:29:26+00:00",
      "item": [ {
        "linkId": "Tx224231",
        "text": "FROM WHAT YOU HAVE HEARD IS A CONSULTATION WITH A PRESCRIBER NEEDED?",
        "answer": [ {
          "valueString": "no"
        } ]
      } ]
    }
  }, {
    "fullUrl": "urn:uuid:72419bd1-9978-4420-a65a-480c5ee2d780",
    "resource": {
      "resourceType": "Questionnaire",
      "id": "72419bd1-9978-4420-a65a-480c5ee2d780",
      "identifier": [ {
        "value": "59263"
      } ],
      "version": "2021-04-06T11:29:26.887Z",
      "status": "active",
      "experimental": false,
      "date": "2021-04-06T11:29:26+00:00",
      "publisher": "User ID: 'HADFIELDR' User name: 'Ryan Hadfield' User skill set: 'T3'",
      "lastReviewDate": "2021-04-06",
      "contact": [ {
        "telecom": [ {
          "system": "phone",
          "value": "07777 888888"
        } ]
      } ],
      "subjectType": [ "Patient" ],
      "item": [ {
        "linkId": "59263",
        "prefix": "0",
        "text": "FROM WHAT YOU HAVE HEARD IS A CONSULTATION WITH A PRESCRIBER NEEDED?",
        "type": "choice",
        "required": true,
        "repeats": false,
        "option": [ {
          "valueString": "yes, Selected: false"
        }, {
          "valueString": "not sure, Selected: false"
        }, {
          "valueString": "no, Selected: true"
        } ]
      } ]
    }
  }, {
    "fullUrl": "urn:uuid:d79ee53a-3354-4d8c-b73a-83082a8c9f15",
    "resource": {
      "resourceType": "QuestionnaireResponse",
      "id": "d79ee53a-3354-4d8c-b73a-83082a8c9f15",
      "identifier": {
        "value": "59263"
      },
      "questionnaire": {
        "reference": "urn:uuid:9b93d9a2-6c9d-4aa1-a88f-d66dda182548"
      },
      "status": "completed",
      "subject": {
        "reference": "urn:uuid:10d2b1c9-b9eb-40c2-b083-8c10e5efb3b8"
      },
      "context": {
        "reference": "urn:uuid:5286f78c-f196-4d24-b7a4-b3246a450061"
      },
      "authored": "2021-04-06T11:29:26+00:00",
      "item": [ {
        "linkId": "Tx222687",
        "text": "Have you got any of the medication available at the moment?",
        "answer": [ {
          "valueString": "no"
        } ]
      } ]
    }
  }, {
    "fullUrl": "urn:uuid:9b93d9a2-6c9d-4aa1-a88f-d66dda182548",
    "resource": {
      "resourceType": "Questionnaire",
      "id": "9b93d9a2-6c9d-4aa1-a88f-d66dda182548",
      "identifier": [ {
        "value": "59263"
      } ],
      "version": "2021-04-06T11:29:26.887Z",
      "status": "active",
      "experimental": false,
      "date": "2021-04-06T11:29:26+00:00",
      "publisher": "User ID: 'HADFIELDR' User name: 'Ryan Hadfield' User skill set: 'T3'",
      "lastReviewDate": "2021-04-06",
      "contact": [ {
        "telecom": [ {
          "system": "phone",
          "value": "07777 888888"
        } ]
      } ],
      "subjectType": [ "Patient" ],
      "item": [ {
        "linkId": "59263",
        "prefix": "200",
        "text": "Have you got any of the medication available at the moment?",
        "type": "choice",
        "required": true,
        "repeats": false,
        "option": [ {
          "valueString": "yes, Selected: false"
        }, {
          "valueString": "not sure, Selected: false"
        }, {
          "valueString": "no, Selected: true"
        } ]
      } ]
    }
  }, {
    "fullUrl": "urn:uuid:bc30bfa0-aabb-4e5a-8443-de89e1954a46",
    "resource": {
      "resourceType": "QuestionnaireResponse",
      "id": "bc30bfa0-aabb-4e5a-8443-de89e1954a46",
      "identifier": {
        "value": "59263"
      },
      "questionnaire": {
        "reference": "urn:uuid:12c983ce-526e-440b-85b2-7cac0fe89f6c"
      },
      "status": "completed",
      "subject": {
        "reference": "urn:uuid:10d2b1c9-b9eb-40c2-b083-8c10e5efb3b8"
      },
      "context": {
        "reference": "urn:uuid:5286f78c-f196-4d24-b7a4-b3246a450061"
      },
      "authored": "2021-04-06T11:29:26+00:00",
      "item": [ {
        "linkId": "Tx221367",
        "text": "When is the next dose due?",
        "answer": [ {
          "valueString": "within the next 12 hours"
        } ]
      } ]
    }
  }, {
    "fullUrl": "urn:uuid:12c983ce-526e-440b-85b2-7cac0fe89f6c",
    "resource": {
      "resourceType": "Questionnaire",
      "id": "12c983ce-526e-440b-85b2-7cac0fe89f6c",
      "identifier": [ {
        "value": "59263"
      } ],
      "version": "2021-04-06T11:29:26.887Z",
      "status": "active",
      "experimental": false,
      "date": "2021-04-06T11:29:26+00:00",
      "publisher": "User ID: 'HADFIELDR' User name: 'Ryan Hadfield' User skill set: 'T3'",
      "lastReviewDate": "2021-04-06",
      "contact": [ {
        "telecom": [ {
          "system": "phone",
          "value": "07777 888888"
        } ]
      } ],
      "subjectType": [ "Patient" ],
      "item": [ {
        "linkId": "59263",
        "prefix": "100",
        "text": "When is the next dose due?",
        "type": "choice",
        "required": true,
        "repeats": false,
        "option": [ {
          "valueString": "within the next 2 hours, Selected: false"
        }, {
          "valueString": "within the next 6 hours, Selected: false"
        }, {
          "valueString": "within the next 12 hours, Selected: true"
        }, {
          "valueString": "over 12 hours time, Selected: false"
        }, {
          "valueString": "not sure, Selected: false"
        } ]
      } ]
    }
  }, {
    "fullUrl": "urn:uuid:1bd8a802-6de4-46fe-a949-5bcc79257e3c",
    "resource": {
      "resourceType": "QuestionnaireResponse",
      "id": "1bd8a802-6de4-46fe-a949-5bcc79257e3c",
      "identifier": {
        "value": "59263"
      },
      "questionnaire": {
        "reference": "urn:uuid:3b2981b3-23fb-4960-ad7f-c2d1097a113b"
      },
      "status": "completed",
      "subject": {
        "reference": "urn:uuid:10d2b1c9-b9eb-40c2-b083-8c10e5efb3b8"
      },
      "context": {
        "reference": "urn:uuid:5286f78c-f196-4d24-b7a4-b3246a450061"
      },
      "authored": "2021-04-06T11:29:26+00:00",
      "item": [ {
        "linkId": "Tx223441",
        "text": "STRING:SDPCRepeatPrescription",
        "answer": [ {
          "valueString": "\"PC repeat prescription\""
        } ]
      } ]
    }
  }, {
    "fullUrl": "urn:uuid:3b2981b3-23fb-4960-ad7f-c2d1097a113b",
    "resource": {
      "resourceType": "Questionnaire",
      "id": "3b2981b3-23fb-4960-ad7f-c2d1097a113b",
      "identifier": [ {
        "value": "59263"
      } ],
      "version": "2021-04-06T11:29:26.887Z",
      "status": "active",
      "experimental": false,
      "date": "2021-04-06T11:29:26+00:00",
      "publisher": "User ID: 'HADFIELDR' User name: 'Ryan Hadfield' User skill set: 'T3'",
      "lastReviewDate": "2021-04-06",
      "contact": [ {
        "telecom": [ {
          "system": "phone",
          "value": "07777 888888"
        } ]
      } ],
      "subjectType": [ "Patient" ],
      "item": [ {
        "linkId": "59263",
        "prefix": "1200",
        "text": "STRING:SDPCRepeatPrescription",
        "type": "choice",
        "required": true,
        "repeats": false,
        "option": [ {
          "valueString": "\"PC repeat prescription\", Selected: true"
        } ]
      } ]
    }
  }, {
    "fullUrl": "urn:uuid:a1b24fb2-e1b6-4c31-ab8d-bfecbdd08a99",
    "resource": {
      "resourceType": "QuestionnaireResponse",
      "id": "a1b24fb2-e1b6-4c31-ab8d-bfecbdd08a99",
      "identifier": {
        "value": "59263"
      },
      "questionnaire": {
        "reference": "urn:uuid:2101e164-daa4-4db3-adf8-aec4e64b8ab1"
      },
      "status": "completed",
      "subject": {
        "reference": "urn:uuid:10d2b1c9-b9eb-40c2-b083-8c10e5efb3b8"
      },
      "context": {
        "reference": "urn:uuid:5286f78c-f196-4d24-b7a4-b3246a450061"
      },
      "authored": "2021-04-06T11:29:26+00:00"
    }
  }, {
    "fullUrl": "urn:uuid:2101e164-daa4-4db3-adf8-aec4e64b8ab1",
    "resource": {
      "resourceType": "Questionnaire",
      "id": "2101e164-daa4-4db3-adf8-aec4e64b8ab1",
      "identifier": [ {
        "value": "59263"
      } ],
      "version": "2021-04-06T11:29:26.887Z",
      "status": "active",
      "experimental": false,
      "date": "2021-04-06T11:29:26+00:00",
      "publisher": "User ID: 'HADFIELDR' User name: 'Ryan Hadfield' User skill set: 'T3'",
      "lastReviewDate": "2021-04-06",
      "contact": [ {
        "telecom": [ {
          "system": "phone",
          "value": "07777 888888"
        } ]
      } ],
      "subjectType": [ "Patient" ]
    }
  }, {
    "fullUrl": "urn:uuid:d9c04d32-6b99-4882-912c-420e140783c6",
    "resource": {
      "resourceType": "QuestionnaireResponse",
      "id": "d9c04d32-6b99-4882-912c-420e140783c6",
      "identifier": {
        "value": "59263"
      },
      "questionnaire": {
        "reference": "urn:uuid:914429c7-117c-447d-8738-b75d27701898"
      },
      "status": "completed",
      "subject": {
        "reference": "urn:uuid:10d2b1c9-b9eb-40c2-b083-8c10e5efb3b8"
      },
      "context": {
        "reference": "urn:uuid:5286f78c-f196-4d24-b7a4-b3246a450061"
      },
      "authored": "2021-04-06T11:29:26+00:00"
    }
  }, {
    "fullUrl": "urn:uuid:914429c7-117c-447d-8738-b75d27701898",
    "resource": {
      "resourceType": "Questionnaire",
      "id": "914429c7-117c-447d-8738-b75d27701898",
      "identifier": [ {
        "value": "59263"
      } ],
      "version": "2021-04-06T11:29:26.887Z",
      "status": "active",
      "experimental": false,
      "date": "2021-04-06T11:29:26+00:00",
      "publisher": "User ID: 'HADFIELDR' User name: 'Ryan Hadfield' User skill set: 'T3'",
      "lastReviewDate": "2021-04-06",
      "contact": [ {
        "telecom": [ {
          "system": "phone",
          "value": "07777 888888"
        } ]
      } ],
      "subjectType": [ "Patient" ]
    }
  }, {
    "fullUrl": "urn:uuid:39e472b5-4860-41a6-bc0b-d9224f191966",
    "resource": {
      "resourceType": "Observation",
      "id": "39e472b5-4860-41a6-bc0b-d9224f191966",
      "status": "final",
      "code": {
        "coding": [ {
          "system": "http://snomed.info/sct",
          "code": "33962009",
          "display": "Presenting complaint"
        } ]
      },
      "subject": {
        "reference": "urn:uuid:10d2b1c9-b9eb-40c2-b083-8c10e5efb3b8"
      },
      "context": {
        "reference": "urn:uuid:5286f78c-f196-4d24-b7a4-b3246a450061"
      },
      "valueString": "test"
    }
  }, {
    "fullUrl": "urn:uuid:1c8f5895-48a1-4104-9494-6af8a8b2c718",
    "resource": {
      "resourceType": "PractitionerRole",
      "id": "1c8f5895-48a1-4104-9494-6af8a8b2c718",
      "practitioner": {
        "reference": "urn:uuid:49fc785e-45a0-4489-9dc4-9333be1c5dbe"
      },
      "organization": {
        "reference": "urn:uuid:c1b15adc-91b3-49a2-936c-7bf7f552fa86"
      },
      "code": [ {
        "coding": [ {
          "system": "2.16.840.1.113883.2.1.3.2.4.17.339",
          "code": "DOCTOR",
          "display": "Doctor"
        } ]
      } ]
    }
  }, {
    "fullUrl": "urn:uuid:c1b15adc-91b3-49a2-936c-7bf7f552fa86",
    "resource": {
      "resourceType": "Organization",
      "id": "c1b15adc-91b3-49a2-936c-7bf7f552fa86",
      "identifier": [ {
        "value": "RYE"
      } ],
      "name": "1.SCAS Administrator (SCAS111)"
    }
  }, {
    "fullUrl": "urn:uuid:6e912064-12fe-4222-b8b3-f503dcef3ad1",
    "resource": {
      "resourceType": "PractitionerRole",
      "id": "6e912064-12fe-4222-b8b3-f503dcef3ad1",
      "practitioner": {
        "reference": "urn:uuid:853b5805-cb83-44e7-b1f4-6152b56a8797"
      },
      "organization": {
        "reference": "urn:uuid:24505826-a5ba-414f-b3d4-a5eedb25aea7"
      },
      "code": [ {
        "coding": [ {
          "system": "2.16.840.1.113883.2.1.3.2.4.17.196",
          "code": "R0010",
          "display": "Medical Director"
        } ]
      } ]
    }
  }, {
    "fullUrl": "urn:uuid:24505826-a5ba-414f-b3d4-a5eedb25aea7",
    "resource": {
      "resourceType": "Organization",
      "id": "24505826-a5ba-414f-b3d4-a5eedb25aea7",
      "identifier": [ {
        "value": "RYE"
      } ],
      "name": "SCAS111"
    }
  }, {
    "fullUrl": "urn:uuid:53a840cd-0c04-4766-a530-4baffbe08330",
    "resource": {
      "resourceType": "RelatedPerson",
      "id": "53a840cd-0c04-4766-a530-4baffbe08330",
      "patient": {
        "reference": "urn:uuid:10d2b1c9-b9eb-40c2-b083-8c10e5efb3b8"
      },
      "relationship": {
        "coding": [ {
          "system": "http://hl7.org/fhir/v2/0131",
          "code": "C",
          "display": "Emergency Contact"
        } ]
      },
      "telecom": [ {
        "system": "phone",
        "value": "tel:000000000000"
      } ]
    }
  }, {
    "fullUrl": "urn:uuid:11dcd180-7d2f-40be-801a-874ec476bb48",
    "resource": {
      "resourceType": "Device",
      "id": "11dcd180-7d2f-40be-801a-874ec476bb48",
      "model": "111 Adaptor",
      "version": "0.11.0"
    }
  }, {
    "fullUrl": "urn:uuid:c228d415-c075-4078-ade8-ce5a9b38e19f",
    "resource": {
      "resourceType": "List",
      "id": "c228d415-c075-4078-ade8-ce5a9b38e19f",
      "status": "current",
      "mode": "working",
      "title": "111 Report List",
      "code": {
        "coding": [ {
          "system": "http://snomed.info/sct",
          "code": "225390008",
          "display": "Triage"
        } ]
      },
      "subject": {
        "reference": "urn:uuid:10d2b1c9-b9eb-40c2-b083-8c10e5efb3b8"
      },
      "encounter": {
        "reference": "urn:uuid:5286f78c-f196-4d24-b7a4-b3246a450061"
      },
      "date": "2021-10-01T07:34:00+00:00",
      "source": {
        "reference": "urn:uuid:11dcd180-7d2f-40be-801a-874ec476bb48"
      },
      "orderedBy": {
        "coding": [ {
          "system": "http://hl7.org/fhir/list-order",
          "code": "event-date",
          "display": "Sorted by Event Date"
        } ]
      },
      "entry": [ {
        "item": {
          "reference": "urn:uuid:853b5805-cb83-44e7-b1f4-6152b56a8797"
        }
      }, {
        "item": {
          "reference": "urn:uuid:481d2be0-31bf-4a09-9472-63f786975a3a"
        }
      }, {
        "item": {
          "reference": "urn:uuid:c1b15adc-91b3-49a2-936c-7bf7f552fa86"
        }
      }, {
        "item": {
          "reference": "urn:uuid:53a840cd-0c04-4766-a530-4baffbe08330"
        }
      }, {
        "item": {
          "reference": "urn:uuid:19030bad-605d-48df-b7f0-b55b5cb9423c"
        }
      }, {
        "item": {
          "reference": "urn:uuid:4aaf55ba-4b2c-4cd0-905a-f97800b2b64a"
        }
      }, {
        "item": {
          "reference": "urn:uuid:39e472b5-4860-41a6-bc0b-d9224f191966"
        }
      }, {
        "item": {
          "reference": "urn:uuid:24505826-a5ba-414f-b3d4-a5eedb25aea7"
        }
      }, {
        "item": {
          "reference": "urn:uuid:37000d2b-bb4b-489b-8652-4472dc15bb38"
        }
      }, {
        "item": {
          "reference": "urn:uuid:49fc785e-45a0-4489-9dc4-9333be1c5dbe"
        }
      }, {
        "item": {
          "reference": "urn:uuid:898c2b92-d5bc-4df0-994d-a1da6399107d"
        }
      }, {
        "item": {
          "reference": "urn:uuid:e27a4802-4291-4dd5-8999-5b9a8b7c237e"
        }
      }, {
        "item": {
          "reference": "urn:uuid:ef9d828d-a22b-440c-94bd-8257aa14cbee"
        }
      }, {
        "item": {
          "reference": "urn:uuid:fc5562ce-f375-4ac8-a06c-95a6e0d98f74"
        }
      }, {
        "item": {
          "reference": "urn:uuid:3e864105-776e-45be-87dd-e3fc24a6aeff"
        }
      }, {
        "item": {
          "reference": "urn:uuid:3b2981b3-23fb-4960-ad7f-c2d1097a113b"
        }
      }, {
        "item": {
          "reference": "urn:uuid:0de53fce-115c-41fe-be7b-68c1a2c22f3e"
        }
      }, {
        "item": {
          "reference": "urn:uuid:775a6cc7-b119-4a5f-8427-9ce70adfaea6"
        }
      }, {
        "item": {
          "reference": "urn:uuid:aa05bdad-baee-4c33-9998-bfc60842339e"
        }
      }, {
        "item": {
          "reference": "urn:uuid:280bfb56-986c-45d5-8616-537df48fddf8"
        }
      }, {
        "item": {
          "reference": "urn:uuid:27bb0809-b9bb-4137-8dfa-a1d74f6f7428"
        }
      }, {
        "item": {
          "reference": "urn:uuid:fc3224b8-e96e-451d-a813-54788f6af5e6"
        }
      }, {
        "item": {
          "reference": "urn:uuid:e2c1e460-898e-4856-a323-8c1d507bbd8f"
        }
      }, {
        "item": {
          "reference": "urn:uuid:740bac16-219b-477a-876a-9d0bbb99c1ec"
        }
      }, {
        "item": {
          "reference": "urn:uuid:05965a1c-9fbb-4455-b7a0-b84c73e596e6"
        }
      }, {
        "item": {
          "reference": "urn:uuid:d9c04d32-6b99-4882-912c-420e140783c6"
        }
      }, {
        "item": {
          "reference": "urn:uuid:637b21f5-c676-46e3-ae42-6e610f9b6db6"
        }
      }, {
        "item": {
          "reference": "urn:uuid:d82566c5-f63c-4a4d-8a0e-0bbb82d5fc53"
        }
      }, {
        "item": {
          "reference": "urn:uuid:716e703b-8628-404a-a0dd-ddaabfea214a"
        }
      }, {
        "item": {
          "reference": "urn:uuid:94098d41-01c8-4511-b600-5ad68bbac32b"
        }
      }, {
        "item": {
          "reference": "urn:uuid:70ff144c-b818-4ed3-8d65-655ef35f8a5e"
        }
      }, {
        "item": {
          "reference": "urn:uuid:d3eee4dd-bf45-429f-964e-480a87882265"
        }
      }, {
        "item": {
          "reference": "urn:uuid:914429c7-117c-447d-8738-b75d27701898"
        }
      }, {
        "item": {
          "reference": "urn:uuid:ba48e0cc-1478-449e-98e8-f21f870e6695"
        }
      }, {
        "item": {
          "reference": "urn:uuid:ba867b0a-f537-47bc-bf9a-c8dbe74c7542"
        }
      }, {
        "item": {
          "reference": "urn:uuid:53a42de0-7b2a-469c-b2a7-30b374266f50"
        }
      }, {
        "item": {
          "reference": "urn:uuid:dacc39ad-b390-4244-a493-70b403720cb4"
        }
      }, {
        "item": {
          "reference": "urn:uuid:7b79095f-3433-4515-b151-31a03dcb0d45"
        }
      }, {
        "item": {
          "reference": "urn:uuid:d7eeced6-b759-4120-bf01-0ef13e340aaa"
        }
      }, {
        "item": {
          "reference": "urn:uuid:93f83b42-62ab-46d8-bad1-f631123f0807"
        }
      }, {
        "item": {
          "reference": "urn:uuid:72419bd1-9978-4420-a65a-480c5ee2d780"
        }
      }, {
        "item": {
          "reference": "urn:uuid:6307e5b9-5d4a-4349-a8af-f8deab4992f6"
        }
      }, {
        "item": {
          "reference": "urn:uuid:bc64718a-057a-4adc-ac51-b5ee47080a8e"
        }
      }, {
        "item": {
          "reference": "urn:uuid:8b143020-4de1-49c3-979c-ad5fd0828bc1"
        }
      }, {
        "item": {
          "reference": "urn:uuid:b9f36548-8ae9-497a-bb8a-09f64f5de123"
        }
      }, {
        "item": {
          "reference": "urn:uuid:c4c15e06-1812-4aa7-a0d9-fa20f998af9f"
        }
      }, {
        "item": {
          "reference": "urn:uuid:6906749e-8b65-4dc2-b886-b5d9e301bc80"
        }
      }, {
        "item": {
          "reference": "urn:uuid:38246fc3-8f35-4261-b679-6df807be8e39"
        }
      }, {
        "item": {
          "reference": "urn:uuid:3a013f12-eb65-49b8-bd00-3655f2767ca3"
        }
      }, {
        "item": {
          "reference": "urn:uuid:b896fae5-a9a1-413e-ae89-05492c4d0658"
        }
      }, {
        "item": {
          "reference": "urn:uuid:22748296-3adf-4534-ac56-7a6832449474"
        }
      }, {
        "item": {
          "reference": "urn:uuid:03fe6734-a915-427c-a533-5a967e8c6718"
        }
      }, {
        "item": {
          "reference": "urn:uuid:7476f993-2b31-4e64-b571-5a68aa10ac47"
        }
      }, {
        "item": {
          "reference": "urn:uuid:62281068-1455-4929-a01c-e94466ebe62d"
        }
      }, {
        "item": {
          "reference": "urn:uuid:bb6a5ee1-6fe8-4446-a16a-00933b939434"
        }
      }, {
        "item": {
          "reference": "urn:uuid:6c3619f7-9fe4-4ad6-b8ec-9e0175aa217d"
        }
      }, {
        "item": {
          "reference": "urn:uuid:147f869c-6747-4074-9b9e-acd2317df92a"
        }
      }, {
        "item": {
          "reference": "urn:uuid:68464e05-00d3-4c8a-a3c5-a590a728cafc"
        }
      }, {
        "item": {
          "reference": "urn:uuid:270eff63-0065-4cf8-bb88-b27b06b65919"
        }
      }, {
        "item": {
          "reference": "urn:uuid:54553cb7-0c3e-499b-921e-17941f0e9696"
        }
      }, {
        "item": {
          "reference": "urn:uuid:30efb5bf-6aac-47ae-8d09-95dd156a8a7b"
        }
      }, {
        "item": {
          "reference": "urn:uuid:4bcb00d8-ba7c-4f83-8721-e6742f2d6901"
        }
      }, {
        "item": {
          "reference": "urn:uuid:8808fdc6-be27-424a-981b-55da83582d83"
        }
      }, {
        "item": {
          "reference": "urn:uuid:27c60ac6-6e44-49e0-8c0a-79c93d0b7f7a"
        }
      }, {
        "item": {
          "reference": "urn:uuid:2fb4e6a0-9cd9-4e0e-bc9a-0c02354c5ec0"
        }
      }, {
        "item": {
          "reference": "urn:uuid:6e16b5b6-d712-4485-98bd-f59dcb021102"
        }
      }, {
        "item": {
          "reference": "urn:uuid:a2fe900f-66ff-4384-a570-0f909b50d60f"
        }
      }, {
        "item": {
          "reference": "urn:uuid:a1b24fb2-e1b6-4c31-ab8d-bfecbdd08a99"
        }
      }, {
        "item": {
          "reference": "urn:uuid:d509f440-a579-4966-a372-ce26b20c40a1"
        }
      }, {
        "item": {
          "reference": "urn:uuid:29b1fa71-1e8a-457a-9010-8a504a86f50f"
        }
      }, {
        "item": {
          "reference": "urn:uuid:d79ee53a-3354-4d8c-b73a-83082a8c9f15"
        }
      }, {
        "item": {
          "reference": "urn:uuid:85f3a969-f8ae-48ec-b1b2-e85422db625b"
        }
      }, {
        "item": {
          "reference": "urn:uuid:a404b4d2-b8cc-4050-85eb-0f80d82eb9e6"
        }
      }, {
        "item": {
          "reference": "urn:uuid:8f62911b-5ae5-4366-9d81-a68fbff1becc"
        }
      }, {
        "item": {
          "reference": "urn:uuid:871cba62-cded-4bb9-93bd-f27b402632c2"
        }
      }, {
        "item": {
          "reference": "urn:uuid:95eeed69-0f2a-4dba-8fff-5a91d846aa1d"
        }
      }, {
        "item": {
          "reference": "urn:uuid:201602f1-35c6-47ac-a61a-0defeffcfc34"
        }
      }, {
        "item": {
          "reference": "urn:uuid:35afe2dd-ccf5-49ed-8ab0-ec48902b7aef"
        }
      }, {
        "item": {
          "reference": "urn:uuid:0c69c441-6737-4d72-9988-fb78517252be"
        }
      }, {
        "item": {
          "reference": "urn:uuid:fec23653-d3d6-4857-9190-072126b00bf9"
        }
      }, {
        "item": {
          "reference": "urn:uuid:eb0ee63f-f082-4fa9-b199-3dc17cb35edf"
        }
      }, {
        "item": {
          "reference": "urn:uuid:a077d62a-9269-4a98-9a28-b193e49a3355"
        }
      }, {
        "item": {
          "reference": "urn:uuid:55436dfd-38d7-4878-8e85-fa174527e94e"
        }
      }, {
        "item": {
          "reference": "urn:uuid:6473370b-f6d7-4fd6-8c7e-1bfe39e4fd2d"
        }
      }, {
        "item": {
          "reference": "urn:uuid:3b7cd737-7cad-4542-a6d0-bc74b2ecb7b7"
        }
      }, {
        "item": {
          "reference": "urn:uuid:f27b606b-3af2-4b7f-a3eb-f6f2aca8df17"
        }
      }, {
        "item": {
          "reference": "urn:uuid:e60cb767-a50a-4ed0-81c9-5328cc3651d4"
        }
      }, {
        "item": {
          "reference": "urn:uuid:095f5a5a-3984-4a46-b946-fd7edf812555"
        }
      }, {
        "item": {
          "reference": "urn:uuid:f0d247bc-5201-4e24-95ee-34ad23f454d2"
        }
      }, {
        "item": {
          "reference": "urn:uuid:2951bde7-fedd-42ce-a2e4-1bc8b3eb08a8"
        }
      }, {
        "item": {
          "reference": "urn:uuid:7dbb80a4-d3ae-4869-8e71-a0306c68ec3f"
        }
      }, {
        "item": {
          "reference": "urn:uuid:1bd8a802-6de4-46fe-a949-5bcc79257e3c"
        }
      }, {
        "item": {
          "reference": "urn:uuid:07ae212f-1370-4918-910d-49e1706c56ea"
        }
      }, {
        "item": {
          "reference": "urn:uuid:e7b7f317-566e-40e1-a98b-cedfb63bfd32"
        }
      }, {
        "item": {
          "reference": "urn:uuid:7074a7ed-575e-465c-b840-c544cb076a02"
        }
      }, {
        "item": {
          "reference": "urn:uuid:028ada56-6f21-41ce-8391-74ae0f44d1d0"
        }
      }, {
        "item": {
          "reference": "urn:uuid:5baee610-a912-423d-abce-5886c1b36ca0"
        }
      }, {
        "item": {
          "reference": "urn:uuid:870f4839-04fa-40b5-8d87-92b78d1e2f88"
        }
      }, {
        "item": {
          "reference": "urn:uuid:360fa099-a808-49b9-a569-2a0104df9aec"
        }
      }, {
        "item": {
          "reference": "urn:uuid:27580275-b064-45bf-adaf-bceb8621613d"
        }
      }, {
        "item": {
          "reference": "urn:uuid:0a7dd7ad-cafc-490e-b981-e4596c40c8e5"
        }
      }, {
        "item": {
          "reference": "urn:uuid:8f44203c-a18d-4a8c-a22e-96a3e93b0916"
        }
      }, {
        "item": {
          "reference": "urn:uuid:555d9edb-58cc-4bd4-9dba-bbfc55ab0a54"
        }
      }, {
        "item": {
          "reference": "urn:uuid:aef06e6a-19dc-42d6-8465-2044b5ed70d3"
        }
      }, {
        "item": {
          "reference": "urn:uuid:5b027ae5-e947-45cf-9d76-7f00312d53a5"
        }
      }, {
        "item": {
          "reference": "urn:uuid:4b5011dc-b186-40ad-a658-cf80994d66b7"
        }
      }, {
        "item": {
          "reference": "urn:uuid:3e50d5e1-0e07-4c55-a0ab-0d79ee3eb6f3"
        }
      }, {
        "item": {
          "reference": "urn:uuid:c4d6b639-b5f4-432c-a0e7-969725e8de59"
        }
      }, {
        "item": {
          "reference": "urn:uuid:b5b4c789-c354-4dcc-8dde-b159bc110496"
        }
      }, {
        "item": {
          "reference": "urn:uuid:7f51a172-924d-4e35-a8d5-2f1cd5ad5c51"
        }
      }, {
        "item": {
          "reference": "urn:uuid:6bd05c36-de38-4703-9c03-549f25fb39d6"
        }
      }, {
        "item": {
          "reference": "urn:uuid:01907459-2c9e-4520-833e-de3074c82342"
        }
      }, {
        "item": {
          "reference": "urn:uuid:2bc5a0a2-21aa-404f-8a35-8b8a7ef10d7a"
        }
      }, {
        "item": {
          "reference": "urn:uuid:2101e164-daa4-4db3-adf8-aec4e64b8ab1"
        }
      }, {
        "item": {
          "reference": "urn:uuid:8d7f62f2-bc62-4eec-9a0e-569804aee218"
        }
      }, {
        "item": {
          "reference": "urn:uuid:bcaf37bc-8a43-474c-964b-290b64bbf43b"
        }
      }, {
        "item": {
          "reference": "urn:uuid:5b86c23b-aa8b-4529-806e-a16d9469097a"
        }
      }, {
        "item": {
          "reference": "urn:uuid:1c8eddda-817e-4f16-8ae5-ef91a6d07ec2"
        }
      }, {
        "item": {
          "reference": "urn:uuid:12c983ce-526e-440b-85b2-7cac0fe89f6c"
        }
      }, {
        "item": {
          "reference": "urn:uuid:4569e4d3-26ba-49d8-92ea-2bce370aa60e"
        }
      }, {
        "item": {
          "reference": "urn:uuid:92df2d5e-618a-40fa-a452-8231ae5352d1"
        }
      }, {
        "item": {
          "reference": "urn:uuid:c9805efc-1b44-4c8c-a5de-aa25c9d8525b"
        }
      }, {
        "item": {
          "reference": "urn:uuid:35fcd1eb-dfe7-4eb8-b532-837f7b94907c"
        }
      }, {
        "item": {
          "reference": "urn:uuid:690b65d8-ab76-428c-adcd-7bd4c7efeb82"
        }
      }, {
        "item": {
          "reference": "urn:uuid:bc30bfa0-aabb-4e5a-8443-de89e1954a46"
        }
      }, {
        "item": {
          "reference": "urn:uuid:7419d5cc-b35f-47fb-bb08-b6e2621cf74f"
        }
      }, {
        "item": {
          "reference": "urn:uuid:eb032589-fdb4-40d1-8b42-982c9d1c36c5"
        }
      }, {
        "item": {
          "reference": "urn:uuid:062ab909-85fd-4f45-af9e-de4d2e793d70"
        }
      }, {
        "item": {
          "reference": "urn:uuid:4f4ddf29-b5e8-44ea-9e35-0a667911349f"
        }
      }, {
        "item": {
          "reference": "urn:uuid:9b93d9a2-6c9d-4aa1-a88f-d66dda182548"
        }
      }, {
        "item": {
          "reference": "urn:uuid:565b1968-c138-417b-b944-b137700dc93b"
        }
      }, {
        "item": {
          "reference": "urn:uuid:ccb108c5-d6fd-4c88-8fab-51da5948638f"
        }
      }, {
        "item": {
          "reference": "urn:uuid:3dd9cb9f-9dd3-4f64-9cb9-ff7f875b1839"
        }
      } ]
    }
  } ]
}