{
  "resourceType": "Bundle",
  "identifier": {
    "type": {
      "text": "ClinicalDocument VersionNumber"
    },
    "value": "1"
  },
  "type": "message",
  "entry": [ {
    "fullUrl": "urn:uuid:C34D38AA-2A35-4E0C-AAB2-BCC8D397736A",
    "resource": {
      "resourceType": "MessageHeader",
      "id": "C34D38AA-2A35-4E0C-AAB2-BCC8D397736A",
      "event": {
        "system": "https://fhir.nhs.uk/STU3/CodeSystem/EventType-1",
        "code": "referral-1",
        "display": "Referral"
      },
      "destination": [ {
        "endpoint": "urn:nhs-uk:addressing:ods:A82018:DOSServiceID:136753"
      } ],
      "timestamp": "2021-08-03T13:07:14.000+00:00",
      "source": {
        "name": "NHS 111 Adaptor",
        "endpoint": "http://localhost:8080/report"
      },
      "reason": {
        "coding": [ {
          "system": "urn:nhs-itk:ns:201005:interaction",
          "code": "urn:nhs-itk:interaction:primaryGeneralPractitionerRecipientNHS111CDADocument-v2-0"
        } ]
      }
    }
  }, {
    "fullUrl": "urn:uuid:f5a7edd2-07c0-4922-8209-5b2e03d9cdf1",
    "resource": {
      "resourceType": "Encounter",
      "id": "f5a7edd2-07c0-4922-8209-5b2e03d9cdf1",
      "identifier": [ {
        "system": "2.16.840.1.113883.2.1.3.2.4.18.49",
        "value": "6C072313-DFFB-4D60-9416-43B044FDBA9F"
      }, {
        "system": "2.16.840.1.113883.2.1.3.2.4.18.34",
        "value": "1766759"
      }, {
        "system": "2.16.840.1.113883.2.1.3.2.4.18.35",
        "value": "1766759"
      } ],
      "status": "finished",
      "type": [ {
        "text": "111 Encounter Referral"
      } ],
      "subject": {
        "reference": "urn:uuid:3ae750ba-1727-4a4e-a6e0-d719d450285f"
      },
      "participant": [ {
        "type": [ {
          "coding": [ {
            "system": "http://hl7.org/fhir/ValueSet/encounter-participant-type",
            "code": "PPRF",
            "display": "Author"
          } ]
        } ],
        "individual": {
          "reference": "urn:uuid:4c289af3-6e2a-4bdf-be12-592b55c0f315"
        }
      } ],
      "period": {
        "start": "2021-08-03T13:07:14+00:00"
      },
      "location": [ {
        "location": {
          "reference": "urn:uuid:b7b3aa0e-50f6-4333-b2c4-215415ae0155"
        },
        "status": "active"
      }, {
        "location": {
          "reference": "urn:uuid:fa7ab69b-78a1-437f-86ae-5ee5294af53a"
        },
        "status": "completed"
      } ],
      "serviceProvider": {
        "reference": "urn:uuid:869b8825-6226-48b1-b0b8-6d7c40f116c7"
      }
    }
  }, {
    "fullUrl": "urn:uuid:869b8825-6226-48b1-b0b8-6d7c40f116c7",
    "resource": {
      "resourceType": "Organization",
      "id": "869b8825-6226-48b1-b0b8-6d7c40f116c7",
      "active": true,
      "type": [ {
        "text": "CST"
      } ],
      "name": "NWAS 111"
    }
  }, {
    "fullUrl": "urn:uuid:4c289af3-6e2a-4bdf-be12-592b55c0f315",
    "resource": {
      "resourceType": "Practitioner",
      "id": "4c289af3-6e2a-4bdf-be12-592b55c0f315",
      "active": true,
      "name": [ {
        "text": "AndrewJ.Walford"
      } ]
    }
  }, {
    "fullUrl": "urn:uuid:b7b3aa0e-50f6-4333-b2c4-215415ae0155",
    "resource": {
      "resourceType": "Location",
      "id": "b7b3aa0e-50f6-4333-b2c4-215415ae0155",
      "managingOrganization": {
        "reference": "urn:uuid:ca257b6a-8a2c-47a6-bd96-687d5d861520"
      }
    }
  }, {
    "fullUrl": "urn:uuid:ca257b6a-8a2c-47a6-bd96-687d5d861520",
    "resource": {
      "resourceType": "Organization",
      "id": "ca257b6a-8a2c-47a6-bd96-687d5d861520",
      "identifier": [ {
        "value": "A82018"
      } ],
      "type": [ {
        "text": "GP Practice"
      } ],
      "name": "Spencer St Surgery",
      "telecom": [ {
        "system": "phone",
        "value": "tel:01228529171",
        "use": "work"
      } ],
      "address": [ {
        "use": "work",
        "line": [ "Spencer Street Surgery", "10 Spencer Street", "Carlisle" ],
        "postalCode": "CA1 1BP"
      } ]
    }
  }, {
    "fullUrl": "urn:uuid:fa7ab69b-78a1-437f-86ae-5ee5294af53a",
    "resource": {
      "resourceType": "Location",
      "id": "fa7ab69b-78a1-437f-86ae-5ee5294af53a",
      "address": {
        "type": "physical",
        "line": [ "North West Ambulance Service Nhs Trust Salkeld Hall", "Infirmary Street", "Carlisle" ],
        "postalCode": "CA2 7AN"
      }
    }
  }, {
    "fullUrl": "urn:uuid:3ae750ba-1727-4a4e-a6e0-d719d450285f",
    "resource": {
      "resourceType": "Patient",
      "id": "3ae750ba-1727-4a4e-a6e0-d719d450285f",
      "active": true,
      "name": [ {
        "use": "official",
        "family": "Please Disregard",
        "given": [ "Dx09 Test" ]
      } ],
      "telecom": [ {
        "system": "phone",
        "value": "tel:07798501130",
        "use": "mobile"
      }, {
        "system": "phone",
        "value": "tel:07798501130"
      } ],
      "gender": "male",
      "birthDate": "1980-01-01",
      "address": [ {
        "use": "home",
        "line": [ "North West Ambulance Service Nhs Trust Salkeld Hall", "Infirmary Street", "Carlisle" ],
        "postalCode": "CA2 7AN"
      }, {
        "type": "physical",
        "line": [ "North West Ambulance Service Nhs Trust Salkeld Hall", "Infirmary Street", "Carlisle" ],
        "postalCode": "CA2 7AN"
      } ],
      "generalPractitioner": [ {
        "reference": "urn:uuid:a226d04e-87a6-45b7-9f62-82dad34b1adf"
      } ]
    }
  }, {
    "fullUrl": "urn:uuid:a226d04e-87a6-45b7-9f62-82dad34b1adf",
    "resource": {
      "resourceType": "Organization",
      "id": "a226d04e-87a6-45b7-9f62-82dad34b1adf",
      "identifier": [ {
        "value": "A82018"
      } ],
      "type": [ {
        "text": "GP Practice"
      } ],
      "name": "Spencer St Surgery",
      "telecom": [ {
        "system": "phone",
        "value": "tel:01228529171",
        "use": "work"
      } ],
      "address": [ {
        "use": "work",
        "line": [ "Spencer Street Surgery", "10 Spencer Street", "Carlisle" ],
        "postalCode": "CA1 1BP"
      } ]
    }
  }, {
    "fullUrl": "urn:uuid:6b0854ab-587c-41c2-8acf-ee27e4b45787",
    "resource": {
      "resourceType": "HealthcareService",
      "id": "6b0854ab-587c-41c2-8acf-ee27e4b45787",
      "active": true,
      "providedBy": {
        "reference": "urn:uuid:8c71074f-541e-466c-8fc3-4687f31dd314"
      },
      "location": [ {
        "reference": "urn:uuid:48689d20-0209-4bd2-8f3d-6bbc26492aa0"
      } ],
      "name": "Spencer St Surgery",
      "telecom": [ {
        "system": "phone",
        "value": "tel:01228529171",
        "use": "work"
      } ]
    }
  }, {
    "fullUrl": "urn:uuid:48689d20-0209-4bd2-8f3d-6bbc26492aa0",
    "resource": {
      "resourceType": "Location",
      "id": "48689d20-0209-4bd2-8f3d-6bbc26492aa0",
      "telecom": [ {
        "system": "phone",
        "value": "tel:01228529171",
        "use": "work"
      } ],
      "address": {
        "use": "work",
        "line": [ "Spencer Street Surgery", "10 Spencer Street", "Carlisle" ],
        "postalCode": "CA1 1BP"
      },
      "managingOrganization": {
        "reference": "urn:uuid:8c71074f-541e-466c-8fc3-4687f31dd314"
      }
    }
  }, {
    "fullUrl": "urn:uuid:8c71074f-541e-466c-8fc3-4687f31dd314",
    "resource": {
      "resourceType": "Organization",
      "id": "8c71074f-541e-466c-8fc3-4687f31dd314",
      "identifier": [ {
        "value": "A82018"
      } ],
      "type": [ {
        "coding": [ {
          "code": "PRCP",
          "display": "Spencer St Surgery"
        } ]
      } ],
      "name": "Spencer St Surgery"
    }
  }, {
    "fullUrl": "urn:uuid:4f60cffa-fef6-42a3-8c2f-8e4e5ee0cb90",
    "resource": {
      "resourceType": "ReferralRequest",
      "id": "4f60cffa-fef6-42a3-8c2f-8e4e5ee0cb90",
      "status": "active",
      "intent": "plan",
      "priority": "routine",
      "subject": {
        "reference": "urn:uuid:3ae750ba-1727-4a4e-a6e0-d719d450285f"
      },
      "context": {
        "reference": "urn:uuid:f5a7edd2-07c0-4922-8209-5b2e03d9cdf1"
      },
      "occurrencePeriod": {
        "start": "2021-10-01T07:34:01+00:00",
        "end": "2021-10-01T08:34:01+00:00"
      },
      "authoredOn": "2021-08-03T12:36:56+00:00",
      "requester": {
        "agent": {
          "reference": "urn:uuid:f65ddd80-1ca2-4328-896e-9e4296fce9c2"
        },
        "onBehalfOf": {
          "reference": "urn:uuid:869b8825-6226-48b1-b0b8-6d7c40f116c7"
        }
      },
      "recipient": [ {
        "reference": "urn:uuid:d30612b4-0129-43cf-8ecd-b8b1721638ff"
      }, {
        "reference": "urn:uuid:6b0854ab-587c-41c2-8acf-ee27e4b45787"
      } ],
      "reasonReference": [ {
        "reference": "urn:uuid:004a61d3-5218-47e6-88d1-f8a53817fa85"
      } ],
      "supportingInfo": [ {
        "reference": "urn:uuid:23cc8bb8-8dc8-476d-9959-d3f2c2348f87"
      } ]
    }
  }, {
    "fullUrl": "urn:uuid:23cc8bb8-8dc8-476d-9959-d3f2c2348f87",
    "resource": {
      "resourceType": "ProcedureRequest",
      "id": "23cc8bb8-8dc8-476d-9959-d3f2c2348f87",
      "status": "active",
      "intent": "plan",
      "priority": "routine",
      "doNotPerform": false,
      "code": {
        "coding": [ {
          "system": "2.16.840.1.113883.2.1.3.2.4.17.325",
          "code": "Dx09",
          "display": "For Persistent Or Recurrent Symptoms: Get In Touch With A Local Service For A Non-urgent Appointment"
        } ]
      },
      "subject": {
        "reference": "urn:uuid:3ae750ba-1727-4a4e-a6e0-d719d450285f"
      },
      "occurrencePeriod": {
        "start": "2021-10-01T07:34:01+00:00",
        "end": "2021-10-01T08:34:01+00:00"
      },
      "reasonReference": [ {
        "reference": "urn:uuid:004a61d3-5218-47e6-88d1-f8a53817fa85"
      } ]
    }
  }, {
    "fullUrl": "urn:uuid:d30612b4-0129-43cf-8ecd-b8b1721638ff",
    "resource": {
      "resourceType": "Practitioner",
      "id": "d30612b4-0129-43cf-8ecd-b8b1721638ff",
      "active": true,
      "address": [ {
        "type": "physical",
        "line": [ "Spencer Street Surgery", "Spencer Street", "Carlisle" ],
        "postalCode": "CA1 1BP"
      } ]
    }
  }, {
    "fullUrl": "urn:uuid:6740a12b-9bcb-49c5-9712-06f29bcdc22b",
    "resource": {
      "resourceType": "Composition",
      "id": "6740a12b-9bcb-49c5-9712-06f29bcdc22b",
      "identifier": {
        "use": "usual",
        "value": "B5A4AC85-5A10-4D08-B956-83421A24BB81"
      },
      "status": "final",
      "type": {
        "coding": [ {
          "system": "http://snomed.info/sct",
          "code": "371531000",
          "display": "Report of clinical encounter (record artifact)"
        } ]
      },
      "subject": {
        "reference": "urn:uuid:3ae750ba-1727-4a4e-a6e0-d719d450285f"
      },
      "encounter": {
        "reference": "urn:uuid:f5a7edd2-07c0-4922-8209-5b2e03d9cdf1"
      },
      "date": "2021-10-01T07:34:01+00:00",
      "author": [ {
        "reference": "urn:uuid:4c289af3-6e2a-4bdf-be12-592b55c0f315"
      } ],
      "title": "111 Report",
      "confidentiality": "N",
      "section": [ {
        "section": [ {
          "title": "Patient's Reported Condition",
          "text": {
            "status": "generated",
            "div": "<div xmlns=\"http://www.w3.org/1999/xhtml\">**test From Nwas111 - No Action Required - Please Disregard Test</div>"
          }
        }, {
          "title": "Case Summary",
          "text": {
            "status": "generated",
            "div": "<div xmlns=\"http://www.w3.org/1999/xhtml\">&lt;content styleCode=&quot;bold&quot;&gt;Pathways Disposition: Dx09&lt;/content&gt;\n                                                    &lt;br/&gt;\n                                                    &lt;content&gt;For Persistent Or Recurrent Symptoms: Get In Touch With A Local Service For A Non-urgent Appointment&lt;/content&gt;\n                                                    &lt;br/&gt;\n                                                    &lt;br/&gt;\n                                                    &lt;content styleCode=&quot;bold&quot;&gt;Consultation Summary:&lt;/content&gt;\n                                                    &lt;br/&gt;\n                                                    &lt;content&gt;Illness - '**Test From NWAS111 - No Action required - Please Disregard Test case**'&lt;/content&gt;\n                                                    &lt;br/&gt;\n                                                    &lt;content&gt;Warm to touch&lt;/content&gt;\n                                                    &lt;br/&gt;\n                                                    &lt;content&gt;Head lice&lt;/content&gt;\n                                                    &lt;br/&gt;\n                                                    &lt;content&gt;Head lice contact&lt;/content&gt;\n                                                    &lt;br/&gt;\n                                                    &lt;content&gt;Recent sudden loss of clumps of hair&lt;/content&gt;\n                                                    &lt;br/&gt;\n                                                    &lt;br/&gt;\n                                                    &lt;content styleCode=&quot;bold&quot;&gt;Pathways Assessment:&lt;/content&gt;\n                                                    &lt;br/&gt;\n                                                    &lt;content&gt;An injury or health problem was the reason for the contact.&lt;/content&gt;\n                                                    &lt;br/&gt;\n                                                    &lt;content&gt;User comment - '**Test From NWAS111 - No Action required - Please Disregard Test case**'&lt;/content&gt;\n                                                    &lt;br/&gt;\n                                                    &lt;content&gt;Heavy bleeding had not occurred in the previous 2 hours.&lt;/content&gt;\n                                                    &lt;br/&gt;\n                                                    &lt;content&gt;An illness or health problem was the main problem.&lt;/content&gt;\n                                                    &lt;br/&gt;\n                                                    &lt;content&gt;User comment - '**Test From NWAS111 - No Action required - Please Disregard Test case**'&lt;/content&gt;\n                                                    &lt;br/&gt;\n                                                    &lt;content&gt;The individual was not fighting for breath.&lt;/content&gt;\n                                                    &lt;br/&gt;\n                                                    &lt;content&gt;The main reason for the assessment was not an allergic reaction, heart attack, chest/upper back pain, probable stroke, recent fit/seizure or suicide attempt.&lt;/content&gt;\n                                                    &lt;br/&gt;\n                                                    &lt;content&gt;The main reason for contact was not new confusion, declared diabetic hypo/hyperglycaemia, or ICD shock.&lt;/content&gt;\n                                                    &lt;br/&gt;\n                                                    &lt;content&gt;The skin on the torso felt normal, warm or hot.&lt;/content&gt;\n                                                    &lt;br/&gt;\n                                                    &lt;content&gt;Pathway selected - Skin Problems&lt;/content&gt;\n                                                    &lt;br/&gt;\n                                                    &lt;content&gt;The main problem was not a rash, itch, jaundice, skin lumps or abnormal bruising.&lt;/content&gt;\n                                                    &lt;br/&gt;\n                                                    &lt;content&gt;The main problem was head lice.&lt;/content&gt;\n                                                    &lt;br/&gt;\n                                                    &lt;content&gt;There had been contact with somebody with head lice.&lt;/content&gt;\n                                                    &lt;br/&gt;\n                                                    &lt;content&gt;There was recent patchy hair loss.&lt;/content&gt;\n                                                    &lt;br/&gt;\n                                                    &lt;content&gt;User comment - 'GP - Spencer Street Surgery - Cumbria (Home GP)'&lt;/content&gt;\n                                                    &lt;br/&gt;\n                                                    &lt;br/&gt;\n                                                    &lt;content styleCode=&quot;bold&quot;&gt;Advice Given:&lt;/content&gt;\n                                                    &lt;br/&gt;\n                                                    &lt;content&gt;Head lice is common. Speak to a pharmacist for advice on suitable treatments.&lt;/content&gt;\n                                                    &lt;br/&gt;\n                                                    &lt;br/&gt;</div>"
          }
        } ]
      }, {
        "title": "ReferralRequest",
        "entry": [ {
          "reference": "urn:uuid:4f60cffa-fef6-42a3-8c2f-8e4e5ee0cb90"
        } ]
      }, {
        "title": "QuestionnaireResponse",
        "entry": [ {
          "reference": "urn:uuid:ed429210-3248-4f04-a00d-4227e88c82e9"
        } ]
      }, {
        "title": "QuestionnaireResponse",
        "entry": [ {
          "reference": "urn:uuid:6d1ae294-1ae3-487e-9e23-429dfcb00809"
        } ]
      }, {
        "title": "QuestionnaireResponse",
        "entry": [ {
          "reference": "urn:uuid:ac61ddc8-43cd-4588-bef0-f1ac830628e3"
        } ]
      }, {
        "title": "QuestionnaireResponse",
        "entry": [ {
          "reference": "urn:uuid:c6f94bde-60be-49ac-9e96-28c149db8a49"
        } ]
      }, {
        "title": "QuestionnaireResponse",
        "entry": [ {
          "reference": "urn:uuid:b1a64de3-87cf-46a5-8c0b-9c9036d0d7b4"
        } ]
      }, {
        "title": "QuestionnaireResponse",
        "entry": [ {
          "reference": "urn:uuid:41ce4451-3a32-44b5-b32d-2898ef09e40f"
        } ]
      }, {
        "title": "QuestionnaireResponse",
        "entry": [ {
          "reference": "urn:uuid:69843c03-2486-4acf-91e7-e580b0027326"
        } ]
      }, {
        "title": "QuestionnaireResponse",
        "entry": [ {
          "reference": "urn:uuid:2f365883-0155-4d4b-b5e8-30232a4d1102"
        } ]
      }, {
        "title": "QuestionnaireResponse",
        "entry": [ {
          "reference": "urn:uuid:6608d37b-066f-4f4f-b823-8596af0fab00"
        } ]
      }, {
        "title": "QuestionnaireResponse",
        "entry": [ {
          "reference": "urn:uuid:3d5e446e-c165-431c-b372-c0a981687bb2"
        } ]
      }, {
        "title": "QuestionnaireResponse",
        "entry": [ {
          "reference": "urn:uuid:2f6166f8-ee96-4d55-a1f5-55dfaf5c8ee2"
        } ]
      }, {
        "title": "QuestionnaireResponse",
        "entry": [ {
          "reference": "urn:uuid:317ffd4f-077a-4aae-8e5d-bff08775ba58"
        } ]
      }, {
        "title": "QuestionnaireResponse",
        "entry": [ {
          "reference": "urn:uuid:f362e3ea-f936-4baf-b9db-377a4da342ce"
        } ]
      }, {
        "title": "QuestionnaireResponse",
        "entry": [ {
          "reference": "urn:uuid:f01087f9-fe73-4ef6-9dac-bf3f4c00d867"
        } ]
      }, {
        "title": "QuestionnaireResponse",
        "entry": [ {
          "reference": "urn:uuid:4cfec288-3882-41f4-8509-ab5e398634f9"
        } ]
      }, {
        "title": "QuestionnaireResponse",
        "entry": [ {
          "reference": "urn:uuid:e99d5f6b-c0af-406b-b968-c974f9f18fef"
        } ]
      }, {
        "title": "QuestionnaireResponse",
        "entry": [ {
          "reference": "urn:uuid:54d2e929-dcd2-4240-9bb2-616766ebf0f4"
        } ]
      }, {
        "title": "QuestionnaireResponse",
        "entry": [ {
          "reference": "urn:uuid:d786e9d3-36d2-4a97-9039-4a41244649ca"
        } ]
      }, {
        "title": "QuestionnaireResponse",
        "entry": [ {
          "reference": "urn:uuid:93651c4c-fcb7-433a-bc23-70cbba1469e9"
        } ]
      }, {
        "title": "QuestionnaireResponse",
        "entry": [ {
          "reference": "urn:uuid:79bfac87-9210-4dc9-828d-3933395846e0"
        } ]
      }, {
        "title": "QuestionnaireResponse",
        "entry": [ {
          "reference": "urn:uuid:53709204-17c8-4696-b2ed-b070a6c7c39c"
        } ]
      } ]
    }
  }, {
    "fullUrl": "urn:uuid:cca66cb1-beff-4488-8ff4-8338eadd310a",
    "resource": {
      "resourceType": "Consent",
      "id": "cca66cb1-beff-4488-8ff4-8338eadd310a",
      "identifier": {
        "use": "usual",
        "value": "B5A4AC85-5A10-4D08-B956-83421A24BB81"
      },
      "status": "active",
      "patient": {
        "reference": "urn:uuid:3ae750ba-1727-4a4e-a6e0-d719d450285f"
      },
      "period": {
        "start": "2021-08-03T13:07:14+00:00"
      },
      "consentingParty": [ {
        "reference": "urn:uuid:3ae750ba-1727-4a4e-a6e0-d719d450285f"
      } ],
      "action": [ {
        "coding": [ {
          "system": "http://snomed.info/sct",
          "code": "425691002",
          "display": "Consent given for electronic record sharing"
        } ],
        "text": "Consent given for electronic record sharing"
      } ],
      "organization": [ {
        "reference": "urn:uuid:869b8825-6226-48b1-b0b8-6d7c40f116c7"
      } ],
      "policyRule": "http://hl7.org/fhir/ConsentPolicy/opt-out",
      "data": [ {
        "meaning": "related",
        "reference": {
          "reference": "urn:uuid:f5a7edd2-07c0-4922-8209-5b2e03d9cdf1"
        }
      } ]
    }
  }, {
    "fullUrl": "urn:uuid:004a61d3-5218-47e6-88d1-f8a53817fa85",
    "resource": {
      "resourceType": "Condition",
      "id": "004a61d3-5218-47e6-88d1-f8a53817fa85",
      "clinicalStatus": "active",
      "verificationStatus": "unknown",
      "subject": {
        "reference": "urn:uuid:3ae750ba-1727-4a4e-a6e0-d719d450285f"
      },
      "context": {
        "reference": "urn:uuid:f5a7edd2-07c0-4922-8209-5b2e03d9cdf1"
      },
      "evidence": [ {
        "detail": [ {
          "reference": "urn:uuid:ed429210-3248-4f04-a00d-4227e88c82e9"
        } ]
      }, {
        "detail": [ {
          "reference": "urn:uuid:6d1ae294-1ae3-487e-9e23-429dfcb00809"
        } ]
      }, {
        "detail": [ {
          "reference": "urn:uuid:ac61ddc8-43cd-4588-bef0-f1ac830628e3"
        } ]
      }, {
        "detail": [ {
          "reference": "urn:uuid:c6f94bde-60be-49ac-9e96-28c149db8a49"
        } ]
      }, {
        "detail": [ {
          "reference": "urn:uuid:b1a64de3-87cf-46a5-8c0b-9c9036d0d7b4"
        } ]
      }, {
        "detail": [ {
          "reference": "urn:uuid:41ce4451-3a32-44b5-b32d-2898ef09e40f"
        } ]
      }, {
        "detail": [ {
          "reference": "urn:uuid:69843c03-2486-4acf-91e7-e580b0027326"
        } ]
      }, {
        "detail": [ {
          "reference": "urn:uuid:2f365883-0155-4d4b-b5e8-30232a4d1102"
        } ]
      }, {
        "detail": [ {
          "reference": "urn:uuid:6608d37b-066f-4f4f-b823-8596af0fab00"
        } ]
      }, {
        "detail": [ {
          "reference": "urn:uuid:3d5e446e-c165-431c-b372-c0a981687bb2"
        } ]
      }, {
        "detail": [ {
          "reference": "urn:uuid:2f6166f8-ee96-4d55-a1f5-55dfaf5c8ee2"
        } ]
      }, {
        "detail": [ {
          "reference": "urn:uuid:317ffd4f-077a-4aae-8e5d-bff08775ba58"
        } ]
      }, {
        "detail": [ {
          "reference": "urn:uuid:f362e3ea-f936-4baf-b9db-377a4da342ce"
        } ]
      }, {
        "detail": [ {
          "reference": "urn:uuid:f01087f9-fe73-4ef6-9dac-bf3f4c00d867"
        } ]
      }, {
        "detail": [ {
          "reference": "urn:uuid:4cfec288-3882-41f4-8509-ab5e398634f9"
        } ]
      }, {
        "detail": [ {
          "reference": "urn:uuid:e99d5f6b-c0af-406b-b968-c974f9f18fef"
        } ]
      }, {
        "detail": [ {
          "reference": "urn:uuid:54d2e929-dcd2-4240-9bb2-616766ebf0f4"
        } ]
      }, {
        "detail": [ {
          "reference": "urn:uuid:d786e9d3-36d2-4a97-9039-4a41244649ca"
        } ]
      }, {
        "detail": [ {
          "reference": "urn:uuid:93651c4c-fcb7-433a-bc23-70cbba1469e9"
        } ]
      }, {
        "detail": [ {
          "reference": "urn:uuid:79bfac87-9210-4dc9-828d-3933395846e0"
        } ]
      }, {
        "detail": [ {
          "reference": "urn:uuid:53709204-17c8-4696-b2ed-b070a6c7c39c"
        } ]
      } ]
    }
  }, {
    "fullUrl": "urn:uuid:ed429210-3248-4f04-a00d-4227e88c82e9",
    "resource": {
      "resourceType": "QuestionnaireResponse",
      "id": "ed429210-3248-4f04-a00d-4227e88c82e9",
      "identifier": {
        "value": "1766759"
      },
      "questionnaire": {
        "reference": "urn:uuid:9328b1f7-8d6a-401e-8711-a7b817937c15"
      },
      "status": "completed",
      "subject": {
        "reference": "urn:uuid:3ae750ba-1727-4a4e-a6e0-d719d450285f"
      },
      "context": {
        "reference": "urn:uuid:f5a7edd2-07c0-4922-8209-5b2e03d9cdf1"
      },
      "authored": "2021-08-03T13:07:14+00:00",
      "item": [ {
        "linkId": "Tx220109",
        "text": "What is the reason for the contact?",
        "answer": [ {
          "valueString": "an injury or other health problem"
        } ]
      } ]
    }
  }, {
    "fullUrl": "urn:uuid:9328b1f7-8d6a-401e-8711-a7b817937c15",
    "resource": {
      "resourceType": "Questionnaire",
      "id": "9328b1f7-8d6a-401e-8711-a7b817937c15",
      "identifier": [ {
        "value": "1766759"
      } ],
      "version": "2021-08-03T13:07:14.000Z",
      "status": "active",
      "experimental": false,
      "date": "2021-08-03T13:07:14+00:00",
      "publisher": "User ID: '922' User name: 'AndrewJ.Walford' User skill set: 'T4'",
      "lastReviewDate": "2021-08-03",
      "contact": [ {
        "telecom": [ {
          "system": "phone",
          "value": "07798501130"
        } ]
      } ],
      "subjectType": [ "Patient" ],
      "item": [ {
        "linkId": "1766759",
        "prefix": "5",
        "text": "What is the reason for the contact?",
        "type": "choice",
        "required": true,
        "repeats": false,
        "option": [ {
          "valueString": "an injury or other health problem, Selected: true"
        }, {
          "valueString": "a need to access another healthcare service, Selected: false"
        }, {
          "valueString": "a healthcare professional requesting contact with another clinician, Selected: false"
        }, {
          "valueString": "a report of results or tests, Selected: false"
        }, {
          "valueString": "more, Selected: false"
        } ]
      } ]
    }
  }, {
    "fullUrl": "urn:uuid:6d1ae294-1ae3-487e-9e23-429dfcb00809",
    "resource": {
      "resourceType": "QuestionnaireResponse",
      "id": "6d1ae294-1ae3-487e-9e23-429dfcb00809",
      "identifier": {
        "value": "1766759"
      },
      "questionnaire": {
        "reference": "urn:uuid:64bec877-9859-4d24-9302-ec5f6344cfef"
      },
      "status": "completed",
      "subject": {
        "reference": "urn:uuid:3ae750ba-1727-4a4e-a6e0-d719d450285f"
      },
      "context": {
        "reference": "urn:uuid:f5a7edd2-07c0-4922-8209-5b2e03d9cdf1"
      },
      "authored": "2021-08-03T13:07:14+00:00",
      "item": [ {
        "linkId": "Tx221788",
        "text": "STRING:to'ImmediateThreatsToLife(SPA/OOHversion)'-'ABC'menu",
        "answer": [ {
          "valueString": "\"\"present\"\""
        } ]
      } ]
    }
  }, {
    "fullUrl": "urn:uuid:64bec877-9859-4d24-9302-ec5f6344cfef",
    "resource": {
      "resourceType": "Questionnaire",
      "id": "64bec877-9859-4d24-9302-ec5f6344cfef",
      "identifier": [ {
        "value": "1766759"
      } ],
      "version": "2021-08-03T13:07:14.000Z",
      "status": "active",
      "experimental": false,
      "date": "2021-08-03T13:07:14+00:00",
      "publisher": "User ID: '922' User name: 'AndrewJ.Walford' User skill set: 'T4'",
      "lastReviewDate": "2021-08-03",
      "contact": [ {
        "telecom": [ {
          "system": "phone",
          "value": "07798501130"
        } ]
      } ],
      "subjectType": [ "Patient" ],
      "item": [ {
        "linkId": "1766759",
        "prefix": "500",
        "text": "STRING:to'ImmediateThreatsToLife(SPA/OOHversion)'-'ABC'menu",
        "type": "choice",
        "required": true,
        "repeats": false,
        "option": [ {
          "valueString": "\"\"present\"\", Selected: true"
        } ]
      } ]
    }
  }, {
    "fullUrl": "urn:uuid:ac61ddc8-43cd-4588-bef0-f1ac830628e3",
    "resource": {
      "resourceType": "QuestionnaireResponse",
      "id": "ac61ddc8-43cd-4588-bef0-f1ac830628e3",
      "identifier": {
        "value": "1766759"
      },
      "questionnaire": {
        "reference": "urn:uuid:7345955c-7809-44ce-9737-580b519317c3"
      },
      "status": "completed",
      "subject": {
        "reference": "urn:uuid:3ae750ba-1727-4a4e-a6e0-d719d450285f"
      },
      "context": {
        "reference": "urn:uuid:f5a7edd2-07c0-4922-8209-5b2e03d9cdf1"
      },
      "authored": "2021-08-03T13:07:14+00:00",
      "item": [ {
        "linkId": "Tx221814",
        "text": "STRING:aninjuryorotherhealthproblemestablishedinEntryFlow",
        "answer": [ {
          "valueString": "\"\"present\"\""
        } ]
      } ]
    }
  }, {
    "fullUrl": "urn:uuid:7345955c-7809-44ce-9737-580b519317c3",
    "resource": {
      "resourceType": "Questionnaire",
      "id": "7345955c-7809-44ce-9737-580b519317c3",
      "identifier": [ {
        "value": "1766759"
      } ],
      "version": "2021-08-03T13:07:14.000Z",
      "status": "active",
      "experimental": false,
      "date": "2021-08-03T13:07:14+00:00",
      "publisher": "User ID: '922' User name: 'AndrewJ.Walford' User skill set: 'T4'",
      "lastReviewDate": "2021-08-03",
      "contact": [ {
        "telecom": [ {
          "system": "phone",
          "value": "07798501130"
        } ]
      } ],
      "subjectType": [ "Patient" ],
      "item": [ {
        "linkId": "1766759",
        "prefix": "0",
        "text": "STRING:aninjuryorotherhealthproblemestablishedinEntryFlow",
        "type": "choice",
        "required": true,
        "repeats": false,
        "option": [ {
          "valueString": "\"\"present\"\", Selected: true"
        } ]
      } ]
    }
  }, {
    "fullUrl": "urn:uuid:c6f94bde-60be-49ac-9e96-28c149db8a49",
    "resource": {
      "resourceType": "QuestionnaireResponse",
      "id": "c6f94bde-60be-49ac-9e96-28c149db8a49",
      "identifier": {
        "value": "1766759"
      },
      "questionnaire": {
        "reference": "urn:uuid:fc5e8281-f2da-4813-839c-e2fe59a007f7"
      },
      "status": "completed",
      "subject": {
        "reference": "urn:uuid:3ae750ba-1727-4a4e-a6e0-d719d450285f"
      },
      "context": {
        "reference": "urn:uuid:f5a7edd2-07c0-4922-8209-5b2e03d9cdf1"
      },
      "authored": "2021-08-03T13:07:14+00:00",
      "item": [ {
        "linkId": "Tx224120",
        "text": "Have you been bleeding RED BLOOD very heavily IN THE LAST 2 HOURS?",
        "answer": [ {
          "valueString": "no"
        } ]
      } ]
    }
  }, {
    "fullUrl": "urn:uuid:fc5e8281-f2da-4813-839c-e2fe59a007f7",
    "resource": {
      "resourceType": "Questionnaire",
      "id": "fc5e8281-f2da-4813-839c-e2fe59a007f7",
      "identifier": [ {
        "value": "1766759"
      } ],
      "version": "2021-08-03T13:07:14.000Z",
      "status": "active",
      "experimental": false,
      "date": "2021-08-03T13:07:14+00:00",
      "publisher": "User ID: '922' User name: 'AndrewJ.Walford' User skill set: 'T4'",
      "lastReviewDate": "2021-08-03",
      "contact": [ {
        "telecom": [ {
          "system": "phone",
          "value": "07798501130"
        } ]
      } ],
      "subjectType": [ "Patient" ],
      "item": [ {
        "linkId": "1766759",
        "prefix": "7000",
        "text": "Have you been bleeding RED BLOOD very heavily IN THE LAST 2 HOURS?",
        "type": "choice",
        "required": true,
        "repeats": false,
        "option": [ {
          "valueString": "yes, Selected: false"
        }, {
          "valueString": "not sure, Selected: false"
        }, {
          "valueString": "no, Selected: true"
        } ]
      } ]
    }
  }, {
    "fullUrl": "urn:uuid:b1a64de3-87cf-46a5-8c0b-9c9036d0d7b4",
    "resource": {
      "resourceType": "QuestionnaireResponse",
      "id": "b1a64de3-87cf-46a5-8c0b-9c9036d0d7b4",
      "identifier": {
        "value": "1766759"
      },
      "questionnaire": {
        "reference": "urn:uuid:d74d85fa-7d1d-4b96-aa43-d52441af5b28"
      },
      "status": "completed",
      "subject": {
        "reference": "urn:uuid:3ae750ba-1727-4a4e-a6e0-d719d450285f"
      },
      "context": {
        "reference": "urn:uuid:f5a7edd2-07c0-4922-8209-5b2e03d9cdf1"
      },
      "authored": "2021-08-03T13:07:14+00:00",
      "item": [ {
        "linkId": "Tx221343",
        "text": "SocialConcernsExcluded",
        "answer": [ {
          "valueString": "*"
        } ]
      } ]
    }
  }, {
    "fullUrl": "urn:uuid:d74d85fa-7d1d-4b96-aa43-d52441af5b28",
    "resource": {
      "resourceType": "Questionnaire",
      "id": "d74d85fa-7d1d-4b96-aa43-d52441af5b28",
      "identifier": [ {
        "value": "1766759"
      } ],
      "version": "2021-08-03T13:07:14.000Z",
      "status": "active",
      "experimental": false,
      "date": "2021-08-03T13:07:14+00:00",
      "publisher": "User ID: '922' User name: 'AndrewJ.Walford' User skill set: 'T4'",
      "lastReviewDate": "2021-08-03",
      "contact": [ {
        "telecom": [ {
          "system": "phone",
          "value": "07798501130"
        } ]
      } ],
      "subjectType": [ "Patient" ],
      "item": [ {
        "linkId": "1766759",
        "prefix": "2700",
        "text": "SocialConcernsExcluded",
        "type": "choice",
        "required": true,
        "repeats": false,
        "option": [ {
          "valueString": "==\"\"present\"\", Selected: false"
        }, {
          "valueString": "*, Selected: true"
        } ]
      } ]
    }
  }, {
    "fullUrl": "urn:uuid:41ce4451-3a32-44b5-b32d-2898ef09e40f",
    "resource": {
      "resourceType": "QuestionnaireResponse",
      "id": "41ce4451-3a32-44b5-b32d-2898ef09e40f",
      "identifier": {
        "value": "1766759"
      },
      "questionnaire": {
        "reference": "urn:uuid:03d4c928-6c21-46b7-aec4-585a80921a3c"
      },
      "status": "completed",
      "subject": {
        "reference": "urn:uuid:3ae750ba-1727-4a4e-a6e0-d719d450285f"
      },
      "context": {
        "reference": "urn:uuid:f5a7edd2-07c0-4922-8209-5b2e03d9cdf1"
      },
      "authored": "2021-08-03T13:07:14+00:00",
      "item": [ {
        "linkId": "Tx130011",
        "text": "What is the main problem?",
        "answer": [ {
          "valueString": "illness or other health problem (specify)"
        } ]
      } ]
    }
  }, {
    "fullUrl": "urn:uuid:03d4c928-6c21-46b7-aec4-585a80921a3c",
    "resource": {
      "resourceType": "Questionnaire",
      "id": "03d4c928-6c21-46b7-aec4-585a80921a3c",
      "identifier": [ {
        "value": "1766759"
      } ],
      "version": "2021-08-03T13:07:14.000Z",
      "status": "active",
      "experimental": false,
      "date": "2021-08-03T13:07:14+00:00",
      "publisher": "User ID: '922' User name: 'AndrewJ.Walford' User skill set: 'T4'",
      "lastReviewDate": "2021-08-03",
      "contact": [ {
        "telecom": [ {
          "system": "phone",
          "value": "07798501130"
        } ]
      } ],
      "subjectType": [ "Patient" ],
      "item": [ {
        "linkId": "1766759",
        "prefix": "3400",
        "text": "What is the main problem?",
        "type": "choice",
        "required": true,
        "repeats": false,
        "option": [ {
          "valueString": "the individual has been told to follow a particular course of action (specify), Selected: false"
        }, {
          "valueString": "the individual is an identified frequent caller, Selected: false"
        }, {
          "valueString": "injury (specify), Selected: false"
        }, {
          "valueString": "illness or other health problem (specify), Selected: true"
        }, {
          "valueString": "child protection/vulnerable adult concern, Selected: false"
        }, {
          "valueString": "social or domestic emergency, Selected: false"
        }, {
          "valueString": "the environment potentially poses an immediate threat to life (specify), Selected: false"
        } ]
      } ]
    }
  }, {
    "fullUrl": "urn:uuid:69843c03-2486-4acf-91e7-e580b0027326",
    "resource": {
      "resourceType": "QuestionnaireResponse",
      "id": "69843c03-2486-4acf-91e7-e580b0027326",
      "identifier": {
        "value": "1766759"
      },
      "questionnaire": {
        "reference": "urn:uuid:28bcaba0-8539-4983-a7f8-44168411b82c"
      },
      "status": "completed",
      "subject": {
        "reference": "urn:uuid:3ae750ba-1727-4a4e-a6e0-d719d450285f"
      },
      "context": {
        "reference": "urn:uuid:f5a7edd2-07c0-4922-8209-5b2e03d9cdf1"
      },
      "authored": "2021-08-03T13:07:14+00:00",
      "item": [ {
        "linkId": "Tx61025",
        "text": "Are you so breathless that speaking more than a few words is impossible?",
        "answer": [ {
          "valueString": "no"
        } ]
      } ]
    }
  }, {
    "fullUrl": "urn:uuid:28bcaba0-8539-4983-a7f8-44168411b82c",
    "resource": {
      "resourceType": "Questionnaire",
      "id": "28bcaba0-8539-4983-a7f8-44168411b82c",
      "identifier": [ {
        "value": "1766759"
      } ],
      "version": "2021-08-03T13:07:14.000Z",
      "status": "active",
      "experimental": false,
      "date": "2021-08-03T13:07:14+00:00",
      "publisher": "User ID: '922' User name: 'AndrewJ.Walford' User skill set: 'T4'",
      "lastReviewDate": "2021-08-03",
      "contact": [ {
        "telecom": [ {
          "system": "phone",
          "value": "07798501130"
        } ]
      } ],
      "subjectType": [ "Patient" ],
      "item": [ {
        "linkId": "1766759",
        "prefix": "0",
        "text": "Are you so breathless that speaking more than a few words is impossible?",
        "type": "choice",
        "required": true,
        "repeats": false,
        "option": [ {
          "valueString": "yes, Selected: false"
        }, {
          "valueString": "not sure, Selected: false"
        }, {
          "valueString": "no, Selected: true"
        } ]
      } ]
    }
  }, {
    "fullUrl": "urn:uuid:2f365883-0155-4d4b-b5e8-30232a4d1102",
    "resource": {
      "resourceType": "QuestionnaireResponse",
      "id": "2f365883-0155-4d4b-b5e8-30232a4d1102",
      "identifier": {
        "value": "1766759"
      },
      "questionnaire": {
        "reference": "urn:uuid:d2db2752-a7a0-4589-8aeb-898ea8bdb508"
      },
      "status": "completed",
      "subject": {
        "reference": "urn:uuid:3ae750ba-1727-4a4e-a6e0-d719d450285f"
      },
      "context": {
        "reference": "urn:uuid:f5a7edd2-07c0-4922-8209-5b2e03d9cdf1"
      },
      "authored": "2021-08-03T13:07:14+00:00",
      "item": [ {
        "linkId": "Tx220845",
        "text": "SYSTEM_FLUPANDEMIC",
        "answer": [ {
          "valueString": "*"
        } ]
      } ]
    }
  }, {
    "fullUrl": "urn:uuid:d2db2752-a7a0-4589-8aeb-898ea8bdb508",
    "resource": {
      "resourceType": "Questionnaire",
      "id": "d2db2752-a7a0-4589-8aeb-898ea8bdb508",
      "identifier": [ {
        "value": "1766759"
      } ],
      "version": "2021-08-03T13:07:14.000Z",
      "status": "active",
      "experimental": false,
      "date": "2021-08-03T13:07:14+00:00",
      "publisher": "User ID: '922' User name: 'AndrewJ.Walford' User skill set: 'T4'",
      "lastReviewDate": "2021-08-03",
      "contact": [ {
        "telecom": [ {
          "system": "phone",
          "value": "07798501130"
        } ]
      } ],
      "subjectType": [ "Patient" ],
      "item": [ {
        "linkId": "1766759",
        "prefix": "100",
        "text": "SYSTEM_FLUPANDEMIC",
        "type": "choice",
        "required": true,
        "repeats": false,
        "option": [ {
          "valueString": "==\"\"pandemic\"\", Selected: false"
        }, {
          "valueString": "*, Selected: true"
        } ]
      } ]
    }
  }, {
    "fullUrl": "urn:uuid:6608d37b-066f-4f4f-b823-8596af0fab00",
    "resource": {
      "resourceType": "QuestionnaireResponse",
      "id": "6608d37b-066f-4f4f-b823-8596af0fab00",
      "identifier": {
        "value": "1766759"
      },
      "questionnaire": {
        "reference": "urn:uuid:245045ca-e599-4114-8ff9-196b1c898d8f"
      },
      "status": "completed",
      "subject": {
        "reference": "urn:uuid:3ae750ba-1727-4a4e-a6e0-d719d450285f"
      },
      "context": {
        "reference": "urn:uuid:f5a7edd2-07c0-4922-8209-5b2e03d9cdf1"
      },
      "authored": "2021-08-03T13:07:14+00:00",
      "item": [ {
        "linkId": "Tx223440",
        "text": "WHAT IS SAID TO BE THE MAIN REASON FOR THIS CONTACT?",
        "answer": [ {
          "valueString": "more"
        } ]
      } ]
    }
  }, {
    "fullUrl": "urn:uuid:245045ca-e599-4114-8ff9-196b1c898d8f",
    "resource": {
      "resourceType": "Questionnaire",
      "id": "245045ca-e599-4114-8ff9-196b1c898d8f",
      "identifier": [ {
        "value": "1766759"
      } ],
      "version": "2021-08-03T13:07:14.000Z",
      "status": "active",
      "experimental": false,
      "date": "2021-08-03T13:07:14+00:00",
      "publisher": "User ID: '922' User name: 'AndrewJ.Walford' User skill set: 'T4'",
      "lastReviewDate": "2021-08-03",
      "contact": [ {
        "telecom": [ {
          "system": "phone",
          "value": "07798501130"
        } ]
      } ],
      "subjectType": [ "Patient" ],
      "item": [ {
        "linkId": "1766759",
        "prefix": "5000",
        "text": "WHAT IS SAID TO BE THE MAIN REASON FOR THIS CONTACT?",
        "type": "choice",
        "required": true,
        "repeats": false,
        "option": [ {
          "valueString": "a probable allergic reaction now, Selected: false"
        }, {
          "valueString": "a probable heart attack, Selected: false"
        }, {
          "valueString": "chest or upper back pain, Selected: false"
        }, {
          "valueString": "a probable stroke or mini-stroke, Selected: false"
        }, {
          "valueString": "a probable fit or seizure within the last 12 hours, Selected: false"
        }, {
          "valueString": "a suicide attempt, Selected: false"
        }, {
          "valueString": "more, Selected: true"
        } ]
      } ]
    }
  }, {
    "fullUrl": "urn:uuid:3d5e446e-c165-431c-b372-c0a981687bb2",
    "resource": {
      "resourceType": "QuestionnaireResponse",
      "id": "3d5e446e-c165-431c-b372-c0a981687bb2",
      "identifier": {
        "value": "1766759"
      },
      "questionnaire": {
        "reference": "urn:uuid:9d35faba-6219-4e55-9739-a9523c99f110"
      },
      "status": "completed",
      "subject": {
        "reference": "urn:uuid:3ae750ba-1727-4a4e-a6e0-d719d450285f"
      },
      "context": {
        "reference": "urn:uuid:f5a7edd2-07c0-4922-8209-5b2e03d9cdf1"
      },
      "authored": "2021-08-03T13:07:14+00:00",
      "item": [ {
        "linkId": "Tx220032",
        "text": "WHAT IS SAID TO BE THE MAIN REASON FOR THIS CONTACT?",
        "answer": [ {
          "valueString": "none of the above"
        } ]
      } ]
    }
  }, {
    "fullUrl": "urn:uuid:9d35faba-6219-4e55-9739-a9523c99f110",
    "resource": {
      "resourceType": "Questionnaire",
      "id": "9d35faba-6219-4e55-9739-a9523c99f110",
      "identifier": [ {
        "value": "1766759"
      } ],
      "version": "2021-08-03T13:07:14.000Z",
      "status": "active",
      "experimental": false,
      "date": "2021-08-03T13:07:14+00:00",
      "publisher": "User ID: '922' User name: 'AndrewJ.Walford' User skill set: 'T4'",
      "lastReviewDate": "2021-08-03",
      "contact": [ {
        "telecom": [ {
          "system": "phone",
          "value": "07798501130"
        } ]
      } ],
      "subjectType": [ "Patient" ],
      "item": [ {
        "linkId": "1766759",
        "prefix": "1900",
        "text": "WHAT IS SAID TO BE THE MAIN REASON FOR THIS CONTACT?",
        "type": "choice",
        "required": true,
        "repeats": false,
        "option": [ {
          "valueString": "new confusion now, Selected: false"
        }, {
          "valueString": "a diabetic hypo (low blood sugar) or a diabetic hyper (high blood sugar), Selected: false"
        }, {
          "valueString": "recovery from an ICD (implanted cardioverter defibrillator) shock, Selected: false"
        }, {
          "valueString": "none of the above, Selected: true"
        } ]
      } ]
    }
  }, {
    "fullUrl": "urn:uuid:2f6166f8-ee96-4d55-a1f5-55dfaf5c8ee2",
    "resource": {
      "resourceType": "QuestionnaireResponse",
      "id": "2f6166f8-ee96-4d55-a1f5-55dfaf5c8ee2",
      "identifier": {
        "value": "1766759"
      },
      "questionnaire": {
        "reference": "urn:uuid:b4b0f1a4-117d-4db0-ab44-d8a5a571885f"
      },
      "status": "completed",
      "subject": {
        "reference": "urn:uuid:3ae750ba-1727-4a4e-a6e0-d719d450285f"
      },
      "context": {
        "reference": "urn:uuid:f5a7edd2-07c0-4922-8209-5b2e03d9cdf1"
      },
      "authored": "2021-08-03T13:07:14+00:00",
      "item": [ {
        "linkId": "Tx223142",
        "text": "Does the skin on the chest, back or abdomen feel a normal temperature?",
        "answer": [ {
          "valueString": "yes - normal, warm or hot"
        } ]
      } ]
    }
  }, {
    "fullUrl": "urn:uuid:b4b0f1a4-117d-4db0-ab44-d8a5a571885f",
    "resource": {
      "resourceType": "Questionnaire",
      "id": "b4b0f1a4-117d-4db0-ab44-d8a5a571885f",
      "identifier": [ {
        "value": "1766759"
      } ],
      "version": "2021-08-03T13:07:14.000Z",
      "status": "active",
      "experimental": false,
      "date": "2021-08-03T13:07:14+00:00",
      "publisher": "User ID: '922' User name: 'AndrewJ.Walford' User skill set: 'T4'",
      "lastReviewDate": "2021-08-03",
      "contact": [ {
        "telecom": [ {
          "system": "phone",
          "value": "07798501130"
        } ]
      } ],
      "subjectType": [ "Patient" ],
      "item": [ {
        "linkId": "1766759",
        "prefix": "4000",
        "text": "Does the skin on the chest, back or abdomen feel a normal temperature?",
        "type": "choice",
        "required": true,
        "repeats": false,
        "option": [ {
          "valueString": "yes - normal, warm or hot, Selected: true"
        }, {
          "valueString": "not sure, Selected: false"
        }, {
          "valueString": "no - cool OR cold, Selected: false"
        }, {
          "valueString": "not safe to touch, Selected: false"
        } ]
      } ]
    }
  }, {
    "fullUrl": "urn:uuid:317ffd4f-077a-4aae-8e5d-bff08775ba58",
    "resource": {
      "resourceType": "QuestionnaireResponse",
      "id": "317ffd4f-077a-4aae-8e5d-bff08775ba58",
      "identifier": {
        "value": "1766759"
      },
      "questionnaire": {
        "reference": "urn:uuid:4715a627-6150-44d0-a7fc-f804073679cb"
      },
      "status": "completed",
      "subject": {
        "reference": "urn:uuid:3ae750ba-1727-4a4e-a6e0-d719d450285f"
      },
      "context": {
        "reference": "urn:uuid:f5a7edd2-07c0-4922-8209-5b2e03d9cdf1"
      },
      "authored": "2021-08-03T13:07:14+00:00",
      "item": [ {
        "linkId": "Tx221724",
        "text": "STRING:ShockAsked",
        "answer": [ {
          "valueString": "\"\"present\"\""
        } ]
      } ]
    }
  }, {
    "fullUrl": "urn:uuid:4715a627-6150-44d0-a7fc-f804073679cb",
    "resource": {
      "resourceType": "Questionnaire",
      "id": "4715a627-6150-44d0-a7fc-f804073679cb",
      "identifier": [ {
        "value": "1766759"
      } ],
      "version": "2021-08-03T13:07:14.000Z",
      "status": "active",
      "experimental": false,
      "date": "2021-08-03T13:07:14+00:00",
      "publisher": "User ID: '922' User name: 'AndrewJ.Walford' User skill set: 'T4'",
      "lastReviewDate": "2021-08-03",
      "contact": [ {
        "telecom": [ {
          "system": "phone",
          "value": "07798501130"
        } ]
      } ],
      "subjectType": [ "Patient" ],
      "item": [ {
        "linkId": "1766759",
        "prefix": "3300",
        "text": "STRING:ShockAsked",
        "type": "choice",
        "required": true,
        "repeats": false,
        "option": [ {
          "valueString": "\"\"present\"\", Selected: true"
        } ]
      } ]
    }
  }, {
    "fullUrl": "urn:uuid:f362e3ea-f936-4baf-b9db-377a4da342ce",
    "resource": {
      "resourceType": "QuestionnaireResponse",
      "id": "f362e3ea-f936-4baf-b9db-377a4da342ce",
      "identifier": {
        "value": "1766759"
      },
      "questionnaire": {
        "reference": "urn:uuid:03e38f4c-e47b-43e2-a586-3cb9a5516170"
      },
      "status": "completed",
      "subject": {
        "reference": "urn:uuid:3ae750ba-1727-4a4e-a6e0-d719d450285f"
      },
      "context": {
        "reference": "urn:uuid:f5a7edd2-07c0-4922-8209-5b2e03d9cdf1"
      },
      "authored": "2021-08-03T13:07:14+00:00"
    }
  }, {
    "fullUrl": "urn:uuid:03e38f4c-e47b-43e2-a586-3cb9a5516170",
    "resource": {
      "resourceType": "Questionnaire",
      "id": "03e38f4c-e47b-43e2-a586-3cb9a5516170",
      "identifier": [ {
        "value": "1766759"
      } ],
      "version": "2021-08-03T13:07:14.000Z",
      "status": "active",
      "experimental": false,
      "date": "2021-08-03T13:07:14+00:00",
      "publisher": "User ID: '922' User name: 'AndrewJ.Walford' User skill set: 'T4'",
      "lastReviewDate": "2021-08-03",
      "contact": [ {
        "telecom": [ {
          "system": "phone",
          "value": "07798501130"
        } ]
      } ],
      "subjectType": [ "Patient" ]
    }
  }, {
    "fullUrl": "urn:uuid:f01087f9-fe73-4ef6-9dac-bf3f4c00d867",
    "resource": {
      "resourceType": "QuestionnaireResponse",
      "id": "f01087f9-fe73-4ef6-9dac-bf3f4c00d867",
      "identifier": {
        "value": "1766759"
      },
      "questionnaire": {
        "reference": "urn:uuid:831b251a-9b51-4c71-9a20-55540964877a"
      },
      "status": "completed",
      "subject": {
        "reference": "urn:uuid:3ae750ba-1727-4a4e-a6e0-d719d450285f"
      },
      "context": {
        "reference": "urn:uuid:f5a7edd2-07c0-4922-8209-5b2e03d9cdf1"
      },
      "authored": "2021-08-03T13:07:14+00:00",
      "item": [ {
        "linkId": "Tx222984",
        "text": "WHAT IS THE MAIN PROBLEM?",
        "answer": [ {
          "valueString": "more"
        } ]
      } ]
    }
  }, {
    "fullUrl": "urn:uuid:831b251a-9b51-4c71-9a20-55540964877a",
    "resource": {
      "resourceType": "Questionnaire",
      "id": "831b251a-9b51-4c71-9a20-55540964877a",
      "identifier": [ {
        "value": "1766759"
      } ],
      "version": "2021-08-03T13:07:14.000Z",
      "status": "active",
      "experimental": false,
      "date": "2021-08-03T13:07:14+00:00",
      "publisher": "User ID: '922' User name: 'AndrewJ.Walford' User skill set: 'T4'",
      "lastReviewDate": "2021-08-03",
      "contact": [ {
        "telecom": [ {
          "system": "phone",
          "value": "07798501130"
        } ]
      } ],
      "subjectType": [ "Patient" ],
      "item": [ {
        "linkId": "1766759",
        "prefix": "0",
        "text": "WHAT IS THE MAIN PROBLEM?",
        "type": "choice",
        "required": true,
        "repeats": false,
        "option": [ {
          "valueString": "a rash, Selected: false"
        }, {
          "valueString": "itch, Selected: false"
        }, {
          "valueString": "yellow skin, Selected: false"
        }, {
          "valueString": "skin lumps, Selected: false"
        }, {
          "valueString": "easy or unexplained bruising, Selected: false"
        }, {
          "valueString": "more, Selected: true"
        } ]
      } ]
    }
  }, {
    "fullUrl": "urn:uuid:4cfec288-3882-41f4-8509-ab5e398634f9",
    "resource": {
      "resourceType": "QuestionnaireResponse",
      "id": "4cfec288-3882-41f4-8509-ab5e398634f9",
      "identifier": {
        "value": "1766759"
      },
      "questionnaire": {
        "reference": "urn:uuid:c7a4eabc-ee2b-4acb-9bd4-5a1f6d5dc970"
      },
      "status": "completed",
      "subject": {
        "reference": "urn:uuid:3ae750ba-1727-4a4e-a6e0-d719d450285f"
      },
      "context": {
        "reference": "urn:uuid:f5a7edd2-07c0-4922-8209-5b2e03d9cdf1"
      },
      "authored": "2021-08-03T13:07:14+00:00",
      "item": [ {
        "linkId": "Tx222985",
        "text": "WHAT IS THE MAIN PROBLEM?",
        "answer": [ {
          "valueString": "declared head lice"
        } ]
      } ]
    }
  }, {
    "fullUrl": "urn:uuid:c7a4eabc-ee2b-4acb-9bd4-5a1f6d5dc970",
    "resource": {
      "resourceType": "Questionnaire",
      "id": "c7a4eabc-ee2b-4acb-9bd4-5a1f6d5dc970",
      "identifier": [ {
        "value": "1766759"
      } ],
      "version": "2021-08-03T13:07:14.000Z",
      "status": "active",
      "experimental": false,
      "date": "2021-08-03T13:07:14+00:00",
      "publisher": "User ID: '922' User name: 'AndrewJ.Walford' User skill set: 'T4'",
      "lastReviewDate": "2021-08-03",
      "contact": [ {
        "telecom": [ {
          "system": "phone",
          "value": "07798501130"
        } ]
      } ],
      "subjectType": [ "Patient" ],
      "item": [ {
        "linkId": "1766759",
        "prefix": "700",
        "text": "WHAT IS THE MAIN PROBLEM?",
        "type": "choice",
        "required": true,
        "repeats": false,
        "option": [ {
          "valueString": "declared head lice, Selected: true"
        }, {
          "valueString": "declared pubic lice, Selected: false"
        }, {
          "valueString": "declared scabies, Selected: false"
        }, {
          "valueString": "declared athlete's foot, Selected: false"
        }, {
          "valueString": "acne, spots or pimples, Selected: false"
        }, {
          "valueString": "more, Selected: false"
        } ]
      } ]
    }
  }, {
    "fullUrl": "urn:uuid:e99d5f6b-c0af-406b-b968-c974f9f18fef",
    "resource": {
      "resourceType": "QuestionnaireResponse",
      "id": "e99d5f6b-c0af-406b-b968-c974f9f18fef",
      "identifier": {
        "value": "1766759"
      },
      "questionnaire": {
        "reference": "urn:uuid:453723a3-5d9e-4bc4-8083-cd1d1084b1d4"
      },
      "status": "completed",
      "subject": {
        "reference": "urn:uuid:3ae750ba-1727-4a4e-a6e0-d719d450285f"
      },
      "context": {
        "reference": "urn:uuid:f5a7edd2-07c0-4922-8209-5b2e03d9cdf1"
      },
      "authored": "2021-08-03T13:07:14+00:00",
      "item": [ {
        "linkId": "Tx220667",
        "text": "Have you been in contact with somebody with head lice or nits?",
        "answer": [ {
          "valueString": "yes"
        } ]
      } ]
    }
  }, {
    "fullUrl": "urn:uuid:453723a3-5d9e-4bc4-8083-cd1d1084b1d4",
    "resource": {
      "resourceType": "Questionnaire",
      "id": "453723a3-5d9e-4bc4-8083-cd1d1084b1d4",
      "identifier": [ {
        "value": "1766759"
      } ],
      "version": "2021-08-03T13:07:14.000Z",
      "status": "active",
      "experimental": false,
      "date": "2021-08-03T13:07:14+00:00",
      "publisher": "User ID: '922' User name: 'AndrewJ.Walford' User skill set: 'T4'",
      "lastReviewDate": "2021-08-03",
      "contact": [ {
        "telecom": [ {
          "system": "phone",
          "value": "07798501130"
        } ]
      } ],
      "subjectType": [ "Patient" ],
      "item": [ {
        "linkId": "1766759",
        "prefix": "0",
        "text": "Have you been in contact with somebody with head lice or nits?",
        "type": "choice",
        "required": true,
        "repeats": false,
        "option": [ {
          "valueString": "yes, Selected: true"
        }, {
          "valueString": "not sure, Selected: false"
        }, {
          "valueString": "no, Selected: false"
        } ]
      } ]
    }
  }, {
    "fullUrl": "urn:uuid:54d2e929-dcd2-4240-9bb2-616766ebf0f4",
    "resource": {
      "resourceType": "QuestionnaireResponse",
      "id": "54d2e929-dcd2-4240-9bb2-616766ebf0f4",
      "identifier": {
        "value": "1766759"
      },
      "questionnaire": {
        "reference": "urn:uuid:22d64f18-f139-4b54-9b92-0878c92ddc1f"
      },
      "status": "completed",
      "subject": {
        "reference": "urn:uuid:3ae750ba-1727-4a4e-a6e0-d719d450285f"
      },
      "context": {
        "reference": "urn:uuid:f5a7edd2-07c0-4922-8209-5b2e03d9cdf1"
      },
      "authored": "2021-08-03T13:07:14+00:00",
      "item": [ {
        "linkId": "Tx220664",
        "text": "Have you lost patches or clumps of hair OVER THE LAST FEW WEEKS?",
        "answer": [ {
          "valueString": "yes"
        } ]
      } ]
    }
  }, {
    "fullUrl": "urn:uuid:22d64f18-f139-4b54-9b92-0878c92ddc1f",
    "resource": {
      "resourceType": "Questionnaire",
      "id": "22d64f18-f139-4b54-9b92-0878c92ddc1f",
      "identifier": [ {
        "value": "1766759"
      } ],
      "version": "2021-08-03T13:07:14.000Z",
      "status": "active",
      "experimental": false,
      "date": "2021-08-03T13:07:14+00:00",
      "publisher": "User ID: '922' User name: 'AndrewJ.Walford' User skill set: 'T4'",
      "lastReviewDate": "2021-08-03",
      "contact": [ {
        "telecom": [ {
          "system": "phone",
          "value": "07798501130"
        } ]
      } ],
      "subjectType": [ "Patient" ],
      "item": [ {
        "linkId": "1766759",
        "prefix": "300",
        "text": "Have you lost patches or clumps of hair OVER THE LAST FEW WEEKS?",
        "type": "choice",
        "required": true,
        "repeats": false,
        "option": [ {
          "valueString": "yes, Selected: true"
        }, {
          "valueString": "not sure, Selected: false"
        }, {
          "valueString": "no, Selected: false"
        } ]
      } ]
    }
  }, {
    "fullUrl": "urn:uuid:d786e9d3-36d2-4a97-9039-4a41244649ca",
    "resource": {
      "resourceType": "QuestionnaireResponse",
      "id": "d786e9d3-36d2-4a97-9039-4a41244649ca",
      "identifier": {
        "value": "1766759"
      },
      "questionnaire": {
        "reference": "urn:uuid:9748c58d-94b2-4476-8fc8-510044c5cd78"
      },
      "status": "completed",
      "subject": {
        "reference": "urn:uuid:3ae750ba-1727-4a4e-a6e0-d719d450285f"
      },
      "context": {
        "reference": "urn:uuid:f5a7edd2-07c0-4922-8209-5b2e03d9cdf1"
      },
      "authored": "2021-08-03T13:07:14+00:00",
      "item": [ {
        "linkId": "Tx221449",
        "text": "STRING:SDPCFullPrimaryCareassessmentandprescribingcapability",
        "answer": [ {
          "valueString": "\"\"PC full Primary Care assessment and prescribing capability\"\""
        } ]
      } ]
    }
  }, {
    "fullUrl": "urn:uuid:9748c58d-94b2-4476-8fc8-510044c5cd78",
    "resource": {
      "resourceType": "Questionnaire",
      "id": "9748c58d-94b2-4476-8fc8-510044c5cd78",
      "identifier": [ {
        "value": "1766759"
      } ],
      "version": "2021-08-03T13:07:14.000Z",
      "status": "active",
      "experimental": false,
      "date": "2021-08-03T13:07:14+00:00",
      "publisher": "User ID: '922' User name: 'AndrewJ.Walford' User skill set: 'T4'",
      "lastReviewDate": "2021-08-03",
      "contact": [ {
        "telecom": [ {
          "system": "phone",
          "value": "07798501130"
        } ]
      } ],
      "subjectType": [ "Patient" ],
      "item": [ {
        "linkId": "1766759",
        "prefix": "500",
        "text": "STRING:SDPCFullPrimaryCareassessmentandprescribingcapability",
        "type": "choice",
        "required": true,
        "repeats": false,
        "option": [ {
          "valueString": "\"\"PC full Primary Care assessment and prescribing capability\"\", Selected: true"
        } ]
      } ]
    }
  }, {
    "fullUrl": "urn:uuid:93651c4c-fcb7-433a-bc23-70cbba1469e9",
    "resource": {
      "resourceType": "QuestionnaireResponse",
      "id": "93651c4c-fcb7-433a-bc23-70cbba1469e9",
      "identifier": {
        "value": "1766759"
      },
      "questionnaire": {
        "reference": "urn:uuid:e3474eeb-22ab-4a08-9d4b-bedcfec7a847"
      },
      "status": "completed",
      "subject": {
        "reference": "urn:uuid:3ae750ba-1727-4a4e-a6e0-d719d450285f"
      },
      "context": {
        "reference": "urn:uuid:f5a7edd2-07c0-4922-8209-5b2e03d9cdf1"
      },
      "authored": "2021-08-03T13:07:14+00:00"
    }
  }, {
    "fullUrl": "urn:uuid:e3474eeb-22ab-4a08-9d4b-bedcfec7a847",
    "resource": {
      "resourceType": "Questionnaire",
      "id": "e3474eeb-22ab-4a08-9d4b-bedcfec7a847",
      "identifier": [ {
        "value": "1766759"
      } ],
      "version": "2021-08-03T13:07:14.000Z",
      "status": "active",
      "experimental": false,
      "date": "2021-08-03T13:07:14+00:00",
      "publisher": "User ID: '922' User name: 'AndrewJ.Walford' User skill set: 'T4'",
      "lastReviewDate": "2021-08-03",
      "contact": [ {
        "telecom": [ {
          "system": "phone",
          "value": "07798501130"
        } ]
      } ],
      "subjectType": [ "Patient" ]
    }
  }, {
    "fullUrl": "urn:uuid:79bfac87-9210-4dc9-828d-3933395846e0",
    "resource": {
      "resourceType": "QuestionnaireResponse",
      "id": "79bfac87-9210-4dc9-828d-3933395846e0",
      "identifier": {
        "value": "1766759"
      },
      "questionnaire": {
        "reference": "urn:uuid:5b6bea18-ed9c-4203-a2fb-88ca58c2be3b"
      },
      "status": "completed",
      "subject": {
        "reference": "urn:uuid:3ae750ba-1727-4a4e-a6e0-d719d450285f"
      },
      "context": {
        "reference": "urn:uuid:f5a7edd2-07c0-4922-8209-5b2e03d9cdf1"
      },
      "authored": "2021-08-03T13:07:14+00:00",
      "item": [ {
        "linkId": "N/A"
      } ]
    }
  }, {
    "fullUrl": "urn:uuid:5b6bea18-ed9c-4203-a2fb-88ca58c2be3b",
    "resource": {
      "resourceType": "Questionnaire",
      "id": "5b6bea18-ed9c-4203-a2fb-88ca58c2be3b",
      "identifier": [ {
        "value": "1766759"
      } ],
      "version": "2021-08-03T13:07:14.000Z",
      "status": "active",
      "experimental": false,
      "date": "2021-08-03T13:07:14+00:00",
      "publisher": "User ID: '922' User name: 'AndrewJ.Walford' User skill set: 'T4'",
      "lastReviewDate": "2021-08-03",
      "contact": [ {
        "telecom": [ {
          "system": "phone",
          "value": "07798501130"
        } ]
      } ],
      "subjectType": [ "Patient" ],
      "item": [ {
        "linkId": "1766759",
        "type": "choice",
        "required": true,
        "repeats": false,
        "option": [ {
          "valueString": ", Selected: false"
        } ]
      } ]
    }
  }, {
    "fullUrl": "urn:uuid:53709204-17c8-4696-b2ed-b070a6c7c39c",
    "resource": {
      "resourceType": "QuestionnaireResponse",
      "id": "53709204-17c8-4696-b2ed-b070a6c7c39c",
      "identifier": {
        "value": "1766759"
      },
      "questionnaire": {
        "reference": "urn:uuid:5cdd6a7b-11e9-4735-84c4-7de30fc613a5"
      },
      "status": "completed",
      "subject": {
        "reference": "urn:uuid:3ae750ba-1727-4a4e-a6e0-d719d450285f"
      },
      "context": {
        "reference": "urn:uuid:f5a7edd2-07c0-4922-8209-5b2e03d9cdf1"
      },
      "authored": "2021-08-03T13:07:14+00:00"
    }
  }, {
    "fullUrl": "urn:uuid:5cdd6a7b-11e9-4735-84c4-7de30fc613a5",
    "resource": {
      "resourceType": "Questionnaire",
      "id": "5cdd6a7b-11e9-4735-84c4-7de30fc613a5",
      "identifier": [ {
        "value": "1766759"
      } ],
      "version": "2021-08-03T13:07:14.000Z",
      "status": "active",
      "experimental": false,
      "date": "2021-08-03T13:07:14+00:00",
      "publisher": "User ID: '922' User name: 'AndrewJ.Walford' User skill set: 'T4'",
      "lastReviewDate": "2021-08-03",
      "contact": [ {
        "telecom": [ {
          "system": "phone",
          "value": "07798501130"
        } ]
      } ],
      "subjectType": [ "Patient" ]
    }
  }, {
    "fullUrl": "urn:uuid:6513d09f-aee7-4992-b761-3bc4d8a54789",
    "resource": {
      "resourceType": "Observation",
      "id": "6513d09f-aee7-4992-b761-3bc4d8a54789",
      "status": "final",
      "code": {
        "coding": [ {
          "system": "http://snomed.info/sct",
          "code": "33962009",
          "display": "Presenting complaint"
        } ]
      },
      "subject": {
        "reference": "urn:uuid:3ae750ba-1727-4a4e-a6e0-d719d450285f"
      },
      "context": {
        "reference": "urn:uuid:f5a7edd2-07c0-4922-8209-5b2e03d9cdf1"
      }
    }
  }, {
    "fullUrl": "urn:uuid:968b89b8-5e0b-49cf-91c1-98150ea43b9c",
    "resource": {
      "resourceType": "PractitionerRole",
      "id": "968b89b8-5e0b-49cf-91c1-98150ea43b9c",
      "practitioner": {
        "reference": "urn:uuid:4c289af3-6e2a-4bdf-be12-592b55c0f315"
      },
      "organization": {
        "reference": "urn:uuid:8f8f3143-be5b-499b-9ca4-36703dc1a8c7"
      },
      "code": [ {
        "coding": [ {
          "system": "2.16.840.1.113883.2.1.3.2.4.17.339",
          "code": "NP",
          "display": "Nurse Practitioner"
        } ]
      } ]
    }
  }, {
    "fullUrl": "urn:uuid:8f8f3143-be5b-499b-9ca4-36703dc1a8c7",
    "resource": {
      "resourceType": "Organization",
      "id": "8f8f3143-be5b-499b-9ca4-36703dc1a8c7",
      "identifier": [ {
        "value": "RX7"
      } ],
      "name": "NWAS 111"
    }
  }, {
    "fullUrl": "urn:uuid:46ff665f-2408-49d0-8334-3904167553d7",
    "resource": {
      "resourceType": "RelatedPerson",
      "id": "46ff665f-2408-49d0-8334-3904167553d7",
      "patient": {
        "reference": "urn:uuid:3ae750ba-1727-4a4e-a6e0-d719d450285f"
      },
      "relationship": {
        "coding": [ {
          "system": "http://hl7.org/fhir/v2/0131",
          "code": "C",
          "display": "Emergency Contact"
        } ]
      },
      "telecom": [ {
        "system": "phone",
        "value": "tel:07798501130"
      } ]
    }
  }, {
    "fullUrl": "urn:uuid:f65ddd80-1ca2-4328-896e-9e4296fce9c2",
    "resource": {
      "resourceType": "Device",
      "id": "f65ddd80-1ca2-4328-896e-9e4296fce9c2",
      "model": "111 Adaptor",
      "version": "0.11.0"
    }
  }, {
    "fullUrl": "urn:uuid:bb8e5534-7622-4c9e-b72b-bee62eb423c1",
    "resource": {
      "resourceType": "List",
      "id": "bb8e5534-7622-4c9e-b72b-bee62eb423c1",
      "status": "current",
      "mode": "working",
      "title": "111 Report List",
      "code": {
        "coding": [ {
          "system": "http://snomed.info/sct",
          "code": "225390008",
          "display": "Triage"
        } ]
      },
      "subject": {
        "reference": "urn:uuid:3ae750ba-1727-4a4e-a6e0-d719d450285f"
      },
      "encounter": {
        "reference": "urn:uuid:f5a7edd2-07c0-4922-8209-5b2e03d9cdf1"
      },
      "date": "2021-10-01T07:34:01+00:00",
      "source": {
        "reference": "urn:uuid:f65ddd80-1ca2-4328-896e-9e4296fce9c2"
      },
      "orderedBy": {
        "coding": [ {
          "system": "http://hl7.org/fhir/list-order",
          "code": "event-date",
          "display": "Sorted by Event Date"
        } ]
      },
      "entry": [ {
        "item": {
          "reference": "urn:uuid:869b8825-6226-48b1-b0b8-6d7c40f116c7"
        }
      }, {
        "item": {
          "reference": "urn:uuid:8c71074f-541e-466c-8fc3-4687f31dd314"
        }
      }, {
        "item": {
          "reference": "urn:uuid:004a61d3-5218-47e6-88d1-f8a53817fa85"
        }
      }, {
        "item": {
          "reference": "urn:uuid:ca257b6a-8a2c-47a6-bd96-687d5d861520"
        }
      }, {
        "item": {
          "reference": "urn:uuid:46ff665f-2408-49d0-8334-3904167553d7"
        }
      }, {
        "item": {
          "reference": "urn:uuid:d30612b4-0129-43cf-8ecd-b8b1721638ff"
        }
      }, {
        "item": {
          "reference": "urn:uuid:a226d04e-87a6-45b7-9f62-82dad34b1adf"
        }
      }, {
        "item": {
          "reference": "urn:uuid:6513d09f-aee7-4992-b761-3bc4d8a54789"
        }
      }, {
        "item": {
          "reference": "urn:uuid:8f8f3143-be5b-499b-9ca4-36703dc1a8c7"
        }
      }, {
        "item": {
          "reference": "urn:uuid:4c289af3-6e2a-4bdf-be12-592b55c0f315"
        }
      }, {
        "item": {
          "reference": "urn:uuid:245045ca-e599-4114-8ff9-196b1c898d8f"
        }
      }, {
        "item": {
          "reference": "urn:uuid:03e38f4c-e47b-43e2-a586-3cb9a5516170"
        }
      }, {
        "item": {
          "reference": "urn:uuid:831b251a-9b51-4c71-9a20-55540964877a"
        }
      }, {
        "item": {
          "reference": "urn:uuid:6608d37b-066f-4f4f-b823-8596af0fab00"
        }
      }, {
        "item": {
          "reference": "urn:uuid:e3474eeb-22ab-4a08-9d4b-bedcfec7a847"
        }
      }, {
        "item": {
          "reference": "urn:uuid:453723a3-5d9e-4bc4-8083-cd1d1084b1d4"
        }
      }, {
        "item": {
          "reference": "urn:uuid:2f365883-0155-4d4b-b5e8-30232a4d1102"
        }
      }, {
        "item": {
          "reference": "urn:uuid:ed429210-3248-4f04-a00d-4227e88c82e9"
        }
      }, {
        "item": {
          "reference": "urn:uuid:64bec877-9859-4d24-9302-ec5f6344cfef"
        }
      }, {
        "item": {
          "reference": "urn:uuid:03d4c928-6c21-46b7-aec4-585a80921a3c"
        }
      }, {
        "item": {
          "reference": "urn:uuid:d74d85fa-7d1d-4b96-aa43-d52441af5b28"
        }
      }, {
        "item": {
          "reference": "urn:uuid:b1a64de3-87cf-46a5-8c0b-9c9036d0d7b4"
        }
      }, {
        "item": {
          "reference": "urn:uuid:d786e9d3-36d2-4a97-9039-4a41244649ca"
        }
      }, {
        "item": {
          "reference": "urn:uuid:f01087f9-fe73-4ef6-9dac-bf3f4c00d867"
        }
      }, {
        "item": {
          "reference": "urn:uuid:9d35faba-6219-4e55-9739-a9523c99f110"
        }
      }, {
        "item": {
          "reference": "urn:uuid:7345955c-7809-44ce-9737-580b519317c3"
        }
      }, {
        "item": {
          "reference": "urn:uuid:b4b0f1a4-117d-4db0-ab44-d8a5a571885f"
        }
      }, {
        "item": {
          "reference": "urn:uuid:317ffd4f-077a-4aae-8e5d-bff08775ba58"
        }
      }, {
        "item": {
          "reference": "urn:uuid:69843c03-2486-4acf-91e7-e580b0027326"
        }
      }, {
        "item": {
          "reference": "urn:uuid:d2db2752-a7a0-4589-8aeb-898ea8bdb508"
        }
      }, {
        "item": {
          "reference": "urn:uuid:6d1ae294-1ae3-487e-9e23-429dfcb00809"
        }
      }, {
        "item": {
          "reference": "urn:uuid:9328b1f7-8d6a-401e-8711-a7b817937c15"
        }
      }, {
        "item": {
          "reference": "urn:uuid:28bcaba0-8539-4983-a7f8-44168411b82c"
        }
      }, {
        "item": {
          "reference": "urn:uuid:53709204-17c8-4696-b2ed-b070a6c7c39c"
        }
      }, {
        "item": {
          "reference": "urn:uuid:5cdd6a7b-11e9-4735-84c4-7de30fc613a5"
        }
      }, {
        "item": {
          "reference": "urn:uuid:9748c58d-94b2-4476-8fc8-510044c5cd78"
        }
      }, {
        "item": {
          "reference": "urn:uuid:e99d5f6b-c0af-406b-b968-c974f9f18fef"
        }
      }, {
        "item": {
          "reference": "urn:uuid:ac61ddc8-43cd-4588-bef0-f1ac830628e3"
        }
      }, {
        "item": {
          "reference": "urn:uuid:54d2e929-dcd2-4240-9bb2-616766ebf0f4"
        }
      }, {
        "item": {
          "reference": "urn:uuid:93651c4c-fcb7-433a-bc23-70cbba1469e9"
        }
      }, {
        "item": {
          "reference": "urn:uuid:f362e3ea-f936-4baf-b9db-377a4da342ce"
        }
      }, {
        "item": {
          "reference": "urn:uuid:3d5e446e-c165-431c-b372-c0a981687bb2"
        }
      }, {
        "item": {
          "reference": "urn:uuid:2f6166f8-ee96-4d55-a1f5-55dfaf5c8ee2"
        }
      }, {
        "item": {
          "reference": "urn:uuid:c6f94bde-60be-49ac-9e96-28c149db8a49"
        }
      }, {
        "item": {
          "reference": "urn:uuid:41ce4451-3a32-44b5-b32d-2898ef09e40f"
        }
      }, {
        "item": {
          "reference": "urn:uuid:fc5e8281-f2da-4813-839c-e2fe59a007f7"
        }
      }, {
        "item": {
          "reference": "urn:uuid:5b6bea18-ed9c-4203-a2fb-88ca58c2be3b"
        }
      }, {
        "item": {
          "reference": "urn:uuid:79bfac87-9210-4dc9-828d-3933395846e0"
        }
      }, {
        "item": {
          "reference": "urn:uuid:c7a4eabc-ee2b-4acb-9bd4-5a1f6d5dc970"
        }
      }, {
        "item": {
          "reference": "urn:uuid:22d64f18-f139-4b54-9b92-0878c92ddc1f"
        }
      }, {
        "item": {
          "reference": "urn:uuid:4715a627-6150-44d0-a7fc-f804073679cb"
        }
      }, {
        "item": {
          "reference": "urn:uuid:4cfec288-3882-41f4-8509-ab5e398634f9"
        }
      }, {
        "item": {
          "reference": "urn:uuid:4f60cffa-fef6-42a3-8c2f-8e4e5ee0cb90"
        }
      } ]
    }
  } ]
}