{
  "resourceType": "Bundle",
  "identifier": {
    "type": {
      "text": "ClinicalDocument VersionNumber"
    },
    "value": "1"
  },
  "type": "message",
  "entry": [ {
    "fullUrl": "urn:uuid:F7916D36-4D5F-4A64-BD08-644E8A234AE2",
    "resource": {
      "resourceType": "MessageHeader",
      "id": "F7916D36-4D5F-4A64-BD08-644E8A234AE2",
      "event": {
        "system": "https://fhir.nhs.uk/STU3/CodeSystem/EventType-1",
        "code": "referral-1",
        "display": "Referral"
      },
      "destination": [ {
        "endpoint": "urn:nhs-uk:addressing:ods:NVE06:DOSServiceID:1335970392"
      } ],
      "timestamp": "2021-05-13T17:24:56.000+00:00",
      "source": {
        "name": "NHS 111 Adaptor",
        "endpoint": "http://localhost:8080/report"
      },
      "reason": {
        "coding": [ {
          "system": "urn:nhs-itk:ns:201005:interaction",
          "code": "urn:nhs-itk:interaction:primaryOutofHourRecipientNHS111CDADocument-v2-0"
        } ]
      }
    }
  }, {
    "fullUrl": "urn:uuid:9112e811-23a0-472d-8c12-d34df5f75bde",
    "resource": {
      "resourceType": "Encounter",
      "id": "9112e811-23a0-472d-8c12-d34df5f75bde",
      "identifier": [ {
        "system": "2.16.840.1.113883.2.1.3.2.4.18.34",
        "value": "2DBAE50F-F88C-4572-9866-F94FE0F1F25A"
      }, {
        "system": "2.16.840.1.113883.2.1.3.2.4.18.35",
        "value": "2100310450"
      } ],
      "status": "finished",
      "type": [ {
        "text": "111 Encounter Referral"
      } ],
      "subject": {
        "reference": "urn:uuid:e735fe23-08a7-4ef5-82b4-f98f41fe6935"
      },
      "participant": [ {
        "type": [ {
          "coding": [ {
            "system": "http://hl7.org/fhir/ValueSet/encounter-participant-type",
            "code": "PPRF",
            "display": "Author"
          } ]
        } ],
        "individual": {
          "reference": "urn:uuid:2517e3da-5ba0-4329-a9b1-6acd953bf573"
        }
      }, {
        "type": [ {
          "text": "Informant"
        } ],
        "individual": {
          "reference": "urn:uuid:10ebdf8c-3866-4bd2-8093-c05d7d2529cb"
        }
      } ],
      "period": {
        "start": "2021-05-13T17:24:56+00:00"
      },
      "location": [ {
        "location": {
          "reference": "urn:uuid:e0709e8e-6f73-4a32-821a-877a0722c864"
        },
        "status": "active"
      }, {
        "location": {
          "reference": "urn:uuid:291fe8f0-b4c4-4d5d-959b-6475df179c55"
        },
        "status": "completed"
      } ],
      "serviceProvider": {
        "reference": "urn:uuid:0cbafa04-b2b0-46b4-b93c-78a60e7fb75c"
      }
    }
  }, {
    "fullUrl": "urn:uuid:0cbafa04-b2b0-46b4-b93c-78a60e7fb75c",
    "resource": {
      "resourceType": "Organization",
      "id": "0cbafa04-b2b0-46b4-b93c-78a60e7fb75c",
      "active": true,
      "type": [ {
        "text": "CST"
      } ],
      "name": "Norfolk and Wisbech 111"
    }
  }, {
    "fullUrl": "urn:uuid:2517e3da-5ba0-4329-a9b1-6acd953bf573",
    "resource": {
      "resourceType": "Practitioner",
      "id": "2517e3da-5ba0-4329-a9b1-6acd953bf573",
      "active": true,
      "name": [ {
        "text": "Ben Smythson"
      } ]
    }
  }, {
    "fullUrl": "urn:uuid:10ebdf8c-3866-4bd2-8093-c05d7d2529cb",
    "resource": {
      "resourceType": "RelatedPerson",
      "id": "10ebdf8c-3866-4bd2-8093-c05d7d2529cb",
      "active": true,
      "patient": {
        "reference": "urn:uuid:e735fe23-08a7-4ef5-82b4-f98f41fe6935"
      },
      "relationship": {
        "coding": [ {
          "system": "2.16.840.1.113883.2.1.3.2.4.16.45",
          "code": "21",
          "display": "Self"
        }, {
          "system": "http://hl7.org/fhir/v2/0131",
          "code": "C",
          "display": "Emergency Contact"
        } ]
      },
      "name": [ {
        "text": "Test Call Dx10 TEST CALL DX10"
      } ],
      "telecom": [ {
        "system": "phone",
        "value": "tel:01233123123"
      } ],
      "gender": "unknown"
    }
  }, {
    "fullUrl": "urn:uuid:e0709e8e-6f73-4a32-821a-877a0722c864",
    "resource": {
      "resourceType": "Location",
      "id": "e0709e8e-6f73-4a32-821a-877a0722c864",
      "managingOrganization": {
        "reference": "urn:uuid:517be501-8531-4ab2-b8f2-9e21dab86f06"
      }
    }
  }, {
    "fullUrl": "urn:uuid:517be501-8531-4ab2-b8f2-9e21dab86f06",
    "resource": {
      "resourceType": "Organization",
      "id": "517be501-8531-4ab2-b8f2-9e21dab86f06",
      "identifier": [ {
        "value": "Z10000"
      } ],
      "type": [ {
        "text": "GP Practice"
      } ],
      "name": "UNKNOWN"
    }
  }, {
    "fullUrl": "urn:uuid:291fe8f0-b4c4-4d5d-959b-6475df179c55",
    "resource": {
      "resourceType": "Location",
      "id": "291fe8f0-b4c4-4d5d-959b-6475df179c55",
      "address": {
        "type": "physical",
        "line": [ "313 VICTORIA ROAD", "LOWESTOFT" ],
        "postalCode": "NR33 9LS"
      }
    }
  }, {
    "fullUrl": "urn:uuid:e735fe23-08a7-4ef5-82b4-f98f41fe6935",
    "resource": {
      "resourceType": "Patient",
      "id": "e735fe23-08a7-4ef5-82b4-f98f41fe6935",
      "language": "en",
      "active": true,
      "name": [ {
        "use": "official",
        "family": "TEST CALL DX10",
        "given": [ "Test Call Dx10" ]
      } ],
      "telecom": [ {
        "system": "phone",
        "value": "tel:01233123123"
      } ],
      "gender": "male",
      "birthDate": "1996-03-25",
      "address": [ {
        "use": "home",
        "line": [ "313 VICTORIA ROAD", "LOWESTOFT" ],
        "postalCode": "NR33 9LS"
      }, {
        "type": "physical",
        "line": [ "313 VICTORIA ROAD", "LOWESTOFT" ],
        "postalCode": "NR33 9LS"
      } ],
      "generalPractitioner": [ {
        "reference": "urn:uuid:ed4e3e68-649f-4b87-ad28-652f3e94888c"
      } ]
    }
  }, {
    "fullUrl": "urn:uuid:ed4e3e68-649f-4b87-ad28-652f3e94888c",
    "resource": {
      "resourceType": "Organization",
      "id": "ed4e3e68-649f-4b87-ad28-652f3e94888c",
      "identifier": [ {
        "value": "Z10000"
      } ],
      "type": [ {
        "text": "GP Practice"
      } ],
      "name": "UNKNOWN"
    }
  }, {
    "fullUrl": "urn:uuid:854bc9f1-2d12-4210-838f-4684289a39b8",
    "resource": {
      "resourceType": "HealthcareService",
      "id": "854bc9f1-2d12-4210-838f-4684289a39b8",
      "active": true,
      "providedBy": {
        "reference": "urn:uuid:567c1bc3-4ce5-4f74-8d2d-fc23baa81035"
      },
      "location": [ {
        "reference": "urn:uuid:c083f9c9-4ee0-43b9-befd-d42bcd1b22d5"
      } ],
      "name": "Out of Hours GP Service (Waveney) - Kirkley Mill Health Centre, Lowestoft"
    }
  }, {
    "fullUrl": "urn:uuid:c083f9c9-4ee0-43b9-befd-d42bcd1b22d5",
    "resource": {
      "resourceType": "Location",
      "id": "c083f9c9-4ee0-43b9-befd-d42bcd1b22d5",
      "managingOrganization": {
        "reference": "urn:uuid:567c1bc3-4ce5-4f74-8d2d-fc23baa81035"
      }
    }
  }, {
    "fullUrl": "urn:uuid:567c1bc3-4ce5-4f74-8d2d-fc23baa81035",
    "resource": {
      "resourceType": "Organization",
      "id": "567c1bc3-4ce5-4f74-8d2d-fc23baa81035",
      "identifier": [ {
        "value": "NVE06"
      } ],
      "type": [ {
        "coding": [ {
          "code": "PRCP",
          "display": "Out of Hours GP Service (Waveney) - Kirkley Mill Health Centre, Lowestoft"
        } ]
      } ],
      "name": "Out of Hours GP Service (Waveney) - Kirkley Mill Health Centre, Lowestoft"
    }
  }, {
    "fullUrl": "urn:uuid:ffd02b49-6c1e-4746-8ec4-3f87a73ee808",
    "resource": {
      "resourceType": "ReferralRequest",
      "id": "ffd02b49-6c1e-4746-8ec4-3f87a73ee808",
      "status": "active",
      "intent": "plan",
      "priority": "routine",
      "subject": {
        "reference": "urn:uuid:e735fe23-08a7-4ef5-82b4-f98f41fe6935"
      },
      "context": {
        "reference": "urn:uuid:9112e811-23a0-472d-8c12-d34df5f75bde"
      },
      "occurrencePeriod": {
        "start": "2021-10-01T07:34:02+00:00",
        "end": "2021-10-01T08:34:02+00:00"
      },
      "authoredOn": "2021-05-13T17:24:56+00:00",
      "requester": {
        "agent": {
          "reference": "urn:uuid:d7280009-3878-423b-b8ff-2d5265c33920"
        },
        "onBehalfOf": {
          "reference": "urn:uuid:0cbafa04-b2b0-46b4-b93c-78a60e7fb75c"
        }
      },
      "recipient": [ {
        "reference": "urn:uuid:a1fd429a-c451-4300-be9d-ec7e336a4fc5"
      }, {
        "reference": "urn:uuid:854bc9f1-2d12-4210-838f-4684289a39b8"
      } ],
      "reasonReference": [ {
        "reference": "urn:uuid:645377f0-d650-4fce-ba75-3a069a0c1438"
      } ],
      "supportingInfo": [ {
        "reference": "urn:uuid:3e75b05b-0aed-4ba2-b25a-980c3c634a06"
      } ]
    }
  }, {
    "fullUrl": "urn:uuid:3e75b05b-0aed-4ba2-b25a-980c3c634a06",
    "resource": {
      "resourceType": "ProcedureRequest",
      "id": "3e75b05b-0aed-4ba2-b25a-980c3c634a06",
      "status": "active",
      "intent": "plan",
      "priority": "routine",
      "doNotPerform": false,
      "code": {
        "coding": [ {
          "system": "2.16.840.1.113883.2.1.3.2.4.17.325",
          "code": "Dx10",
          "display": "MUST contact a local service for a Non-Urgent Appointment"
        } ]
      },
      "subject": {
        "reference": "urn:uuid:e735fe23-08a7-4ef5-82b4-f98f41fe6935"
      },
      "occurrencePeriod": {
        "start": "2021-10-01T07:34:02+00:00",
        "end": "2021-10-01T08:34:02+00:00"
      },
      "reasonReference": [ {
        "reference": "urn:uuid:645377f0-d650-4fce-ba75-3a069a0c1438"
      } ]
    }
  }, {
    "fullUrl": "urn:uuid:a1fd429a-c451-4300-be9d-ec7e336a4fc5",
    "resource": {
      "resourceType": "Practitioner",
      "id": "a1fd429a-c451-4300-be9d-ec7e336a4fc5",
      "active": true,
      "telecom": [ {
        "system": "phone",
        "value": "tel:01233505450"
      } ],
      "address": [ {
        "type": "physical",
        "line": [ "Kingston House", "The Long Barrow", "Orbital Park", "Ashford", "Kent" ],
        "postalCode": "TN24 0GP"
      } ]
    }
  }, {
    "fullUrl": "urn:uuid:78cfcd51-f358-4261-834b-1389e620b0a2",
    "resource": {
      "resourceType": "Composition",
      "id": "78cfcd51-f358-4261-834b-1389e620b0a2",
      "identifier": {
        "use": "usual",
        "value": "895062D0-60A8-4EB4-9017-5F489D53694D"
      },
      "status": "final",
      "type": {
        "coding": [ {
          "system": "http://snomed.info/sct",
          "code": "371531000",
          "display": "Report of clinical encounter (record artifact)"
        } ]
      },
      "subject": {
        "reference": "urn:uuid:e735fe23-08a7-4ef5-82b4-f98f41fe6935"
      },
      "encounter": {
        "reference": "urn:uuid:9112e811-23a0-472d-8c12-d34df5f75bde"
      },
      "date": "2021-10-01T07:34:02+00:00",
      "author": [ {
        "reference": "urn:uuid:2517e3da-5ba0-4329-a9b1-6acd953bf573"
      } ],
      "title": "111 Report",
      "confidentiality": "R",
      "section": [ {
        "section": [ {
          "title": "Patient's Reported Condition",
          "text": {
            "status": "generated",
            "div": "<div xmlns=\"http://www.w3.org/1999/xhtml\">&lt;content&gt;&amp;lt;CLEO Ref: 2100310450&amp;gt; Test Call &lt;br/&gt;\n                                                    &lt;/content&gt;</div>"
          }
        }, {
          "title": "Pathways Disposition",
          "text": {
            "status": "generated",
            "div": "<div xmlns=\"http://www.w3.org/1999/xhtml\">&lt;content&gt;If a pharmacy service is not available contact the GP practice during normal working hours. (Dx10)&lt;/content&gt;\n                                                    &lt;br/&gt;\n                                                    &lt;br/&gt;\n                                                    &lt;content&gt;Selected Service: 1335970392, Out of Hours GP Service (Waveney) - Kirkley Mill Health Centre, Lowestoft, 111&lt;/content&gt;\n                                                    &lt;br/&gt;</div>"
          }
        }, {
          "title": "Consultation Summary",
          "text": {
            "status": "generated",
            "div": "<div xmlns=\"http://www.w3.org/1999/xhtml\">&lt;content&gt;\n                                                        &lt;content&gt;Worst acne feature, blackheads or whiteheads&lt;/content&gt;\n                                                        &lt;br/&gt;\n                                                        &lt;content&gt;Acne&lt;/content&gt;\n                                                        &lt;br/&gt;\n                                                        &lt;content&gt;Warm to touch&lt;/content&gt;\n                                                        &lt;br/&gt;\n                                                        &lt;content&gt;Illness - test&lt;/content&gt;\n                                                        &lt;br/&gt;\n                                                    &lt;/content&gt;</div>"
          }
        }, {
          "title": "Pathways Assessment",
          "text": {
            "status": "generated",
            "div": "<div xmlns=\"http://www.w3.org/1999/xhtml\">&lt;content&gt;An injury or health problem was the reason for the contact.&lt;/content&gt;\n                                                    &lt;br/&gt;\n                                                    &lt;content&gt;Heavy bleeding had not occurred in the previous 2 hours.&lt;/content&gt;\n                                                    &lt;br/&gt;\n                                                    &lt;content&gt;An illness or health problem was the main problem. - test&lt;/content&gt;\n                                                    &lt;br/&gt;\n                                                    &lt;content&gt;The individual was not fighting for breath.&lt;/content&gt;\n                                                    &lt;br/&gt;\n                                                    &lt;content&gt;The main reason for the assessment was not an allergic reaction, heart attack, chest/upper back pain, probable stroke, recent fit/seizure or suicide attempt.&lt;/content&gt;\n                                                    &lt;br/&gt;\n                                                    &lt;content&gt;The main reason for contact was not new confusion, declared diabetic hypo/hyperglycaemia, or ICD shock.&lt;/content&gt;\n                                                    &lt;br/&gt;\n                                                    &lt;content&gt;The skin on the torso felt normal, warm or hot.&lt;/content&gt;\n                                                    &lt;br/&gt;\n                                                    &lt;content&gt;The main problem was not a rash, itch, jaundice, skin lumps or abnormal bruising.&lt;/content&gt;\n                                                    &lt;br/&gt;\n                                                    &lt;content&gt;The main problem was acne, spots or pimples.&lt;/content&gt;\n                                                    &lt;br/&gt;\n                                                    &lt;content&gt;The worst problem with the acne was blackheads or white heads.&lt;/content&gt;\n                                                    &lt;br/&gt;\n                                                    &lt;content&gt;The problem had not persisted for 3 months or got worse over that time.&lt;/content&gt;\n                                                    &lt;br/&gt;</div>"
          }
        }, {
          "title": "Advice Given",
          "text": {
            "status": "generated",
            "div": "<div xmlns=\"http://www.w3.org/1999/xhtml\">&lt;content&gt;Speak to a pharmacist for advice on suitable treatment.&lt;/content&gt;\n                                                    &lt;br/&gt;\n                                                    &lt;content&gt;If there are any new symptoms, or if the condition gets worse, changes or you have any other concerns, call us back.&lt;/content&gt;\n                                                    &lt;br/&gt;</div>"
          }
        }, {
          "title": "SCR Consent",
          "text": {
            "status": "generated",
            "div": "<div xmlns=\"http://www.w3.org/1999/xhtml\">&lt;content&gt;Consent given for SCR sharing&lt;br/&gt;\n                                                        &lt;br/&gt;\n                                                    &lt;/content&gt;</div>"
          }
        } ]
      }, {
        "title": "ReferralRequest",
        "entry": [ {
          "reference": "urn:uuid:ffd02b49-6c1e-4746-8ec4-3f87a73ee808"
        } ]
      } ]
    }
  }, {
    "fullUrl": "urn:uuid:e7b320c3-9c1a-4b30-849e-3ef8a560bdb6",
    "resource": {
      "resourceType": "Consent",
      "id": "e7b320c3-9c1a-4b30-849e-3ef8a560bdb6",
      "identifier": {
        "use": "usual",
        "value": "895062D0-60A8-4EB4-9017-5F489D53694D"
      },
      "status": "active",
      "patient": {
        "reference": "urn:uuid:e735fe23-08a7-4ef5-82b4-f98f41fe6935"
      },
      "period": {
        "start": "2021-05-13T17:24:56+00:00"
      },
      "consentingParty": [ {
        "reference": "urn:uuid:e735fe23-08a7-4ef5-82b4-f98f41fe6935"
      } ],
      "action": [ {
        "coding": [ {
          "system": "http://snomed.info/sct",
          "code": "425691002",
          "display": "Consent given for electronic record sharing"
        } ],
        "text": "Consent given for electronic record sharing"
      } ],
      "organization": [ {
        "reference": "urn:uuid:0cbafa04-b2b0-46b4-b93c-78a60e7fb75c"
      } ],
      "policyRule": "http://hl7.org/fhir/ConsentPolicy/opt-out",
      "data": [ {
        "meaning": "related",
        "reference": {
          "reference": "urn:uuid:9112e811-23a0-472d-8c12-d34df5f75bde"
        }
      } ]
    }
  }, {
    "fullUrl": "urn:uuid:645377f0-d650-4fce-ba75-3a069a0c1438",
    "resource": {
      "resourceType": "Condition",
      "id": "645377f0-d650-4fce-ba75-3a069a0c1438",
      "clinicalStatus": "active",
      "verificationStatus": "unknown",
      "subject": {
        "reference": "urn:uuid:e735fe23-08a7-4ef5-82b4-f98f41fe6935"
      },
      "context": {
        "reference": "urn:uuid:9112e811-23a0-472d-8c12-d34df5f75bde"
      }
    }
  }, {
    "fullUrl": "urn:uuid:adda4de6-a2df-47e9-9529-68b3feb60e00",
    "resource": {
      "resourceType": "Observation",
      "id": "adda4de6-a2df-47e9-9529-68b3feb60e00",
      "status": "final",
      "code": {
        "coding": [ {
          "system": "http://snomed.info/sct",
          "code": "33962009",
          "display": "Presenting complaint"
        } ]
      },
      "subject": {
        "reference": "urn:uuid:e735fe23-08a7-4ef5-82b4-f98f41fe6935"
      },
      "context": {
        "reference": "urn:uuid:9112e811-23a0-472d-8c12-d34df5f75bde"
      },
      "valueString": "<CLEO Ref: 2100310450> Test Call "
    }
  }, {
    "fullUrl": "urn:uuid:a20ccc5b-0765-46db-a7c9-40d584af2421",
    "resource": {
      "resourceType": "PractitionerRole",
      "id": "a20ccc5b-0765-46db-a7c9-40d584af2421",
      "practitioner": {
        "reference": "urn:uuid:2517e3da-5ba0-4329-a9b1-6acd953bf573"
      },
      "organization": {
        "reference": "urn:uuid:a09adbbf-5a9e-4c5c-bf1c-43fc28848706"
      },
      "code": [ {
        "coding": [ {
          "system": "2.16.840.1.113883.2.1.3.2.4.17.196",
          "code": "NR1690",
          "display": "Call Operator"
        } ]
      } ]
    }
  }, {
    "fullUrl": "urn:uuid:a09adbbf-5a9e-4c5c-bf1c-43fc28848706",
    "resource": {
      "resourceType": "Organization",
      "id": "a09adbbf-5a9e-4c5c-bf1c-43fc28848706",
      "identifier": [ {
        "value": "NTN08"
      } ],
      "name": "Norfolk and Wisbech 111"
    }
  }, {
    "fullUrl": "urn:uuid:2c300145-7aff-408b-b1f6-85ad21029c9b",
    "resource": {
      "resourceType": "RelatedPerson",
      "id": "2c300145-7aff-408b-b1f6-85ad21029c9b",
      "patient": {
        "reference": "urn:uuid:e735fe23-08a7-4ef5-82b4-f98f41fe6935"
      },
      "relationship": {
        "coding": [ {
          "system": "http://hl7.org/fhir/v2/0131",
          "code": "C",
          "display": "Emergency Contact"
        } ]
      },
      "telecom": [ {
        "system": "phone",
        "value": "tel:01233123123"
      } ]
    }
  }, {
    "fullUrl": "urn:uuid:d7280009-3878-423b-b8ff-2d5265c33920",
    "resource": {
      "resourceType": "Device",
      "id": "d7280009-3878-423b-b8ff-2d5265c33920",
      "model": "111 Adaptor",
      "version": "0.11.0"
    }
  }, {
    "fullUrl": "urn:uuid:a6a626fa-3723-4731-845f-662ddfce8272",
    "resource": {
      "resourceType": "List",
      "id": "a6a626fa-3723-4731-845f-662ddfce8272",
      "status": "current",
      "mode": "working",
      "title": "111 Report List",
      "code": {
        "coding": [ {
          "system": "http://snomed.info/sct",
          "code": "225390008",
          "display": "Triage"
        } ]
      },
      "subject": {
        "reference": "urn:uuid:e735fe23-08a7-4ef5-82b4-f98f41fe6935"
      },
      "encounter": {
        "reference": "urn:uuid:9112e811-23a0-472d-8c12-d34df5f75bde"
      },
      "date": "2021-10-01T07:34:02+00:00",
      "source": {
        "reference": "urn:uuid:d7280009-3878-423b-b8ff-2d5265c33920"
      },
      "orderedBy": {
        "coding": [ {
          "system": "http://hl7.org/fhir/list-order",
          "code": "event-date",
          "display": "Sorted by Event Date"
        } ]
      },
      "entry": [ {
        "item": {
          "reference": "urn:uuid:2517e3da-5ba0-4329-a9b1-6acd953bf573"
        }
      }, {
        "item": {
          "reference": "urn:uuid:0cbafa04-b2b0-46b4-b93c-78a60e7fb75c"
        }
      }, {
        "item": {
          "reference": "urn:uuid:2c300145-7aff-408b-b1f6-85ad21029c9b"
        }
      }, {
        "item": {
          "reference": "urn:uuid:517be501-8531-4ab2-b8f2-9e21dab86f06"
        }
      }, {
        "item": {
          "reference": "urn:uuid:a09adbbf-5a9e-4c5c-bf1c-43fc28848706"
        }
      }, {
        "item": {
          "reference": "urn:uuid:567c1bc3-4ce5-4f74-8d2d-fc23baa81035"
        }
      }, {
        "item": {
          "reference": "urn:uuid:645377f0-d650-4fce-ba75-3a069a0c1438"
        }
      }, {
        "item": {
          "reference": "urn:uuid:adda4de6-a2df-47e9-9529-68b3feb60e00"
        }
      }, {
        "item": {
          "reference": "urn:uuid:10ebdf8c-3866-4bd2-8093-c05d7d2529cb"
        }
      }, {
        "item": {
          "reference": "urn:uuid:ed4e3e68-649f-4b87-ad28-652f3e94888c"
        }
      }, {
        "item": {
          "reference": "urn:uuid:a1fd429a-c451-4300-be9d-ec7e336a4fc5"
        }
      }, {
        "item": {
          "reference": "urn:uuid:ffd02b49-6c1e-4746-8ec4-3f87a73ee808"
        }
      } ]
    }
  } ]
}