{
  "resourceType": "Bundle",
  "identifier": {
    "type": {
      "text": "ClinicalDocument VersionNumber"
    },
    "value": "1"
  },
  "type": "message",
  "entry": [ {
    "fullUrl": "urn:uuid:F7916D36-4D5F-4A64-BD08-644E8A234AE2",
    "resource": {
      "resourceType": "MessageHeader",
      "id": "F7916D36-4D5F-4A64-BD08-644E8A234AE2",
      "event": {
        "system": "https://fhir.nhs.uk/STU3/CodeSystem/EventType-1",
        "code": "referral-1",
        "display": "Referral"
      },
      "destination": [ {
        "endpoint": "urn:nhs-uk:addressing:ods:NVE06:DOSServiceID:1335970392"
      } ],
      "timestamp": "2021-05-13T17:24:56.000+00:00",
      "source": {
        "name": "NHS 111 Adaptor",
        "endpoint": "http://localhost:8080/report"
      },
      "reason": {
        "coding": [ {
          "system": "urn:nhs-itk:ns:201005:interaction",
          "code": "urn:nhs-itk:interaction:primaryOutofHourRecipientNHS111CDADocument-v2-0"
        } ]
      }
    }
  }, {
    "fullUrl": "urn:uuid:fb6a4384-add4-42fc-93bb-033b0ebdef73",
    "resource": {
      "resourceType": "Encounter",
      "id": "fb6a4384-add4-42fc-93bb-033b0ebdef73",
      "identifier": [ {
        "system": "2.16.840.1.113883.2.1.3.2.4.18.34",
        "value": "2DBAE50F-F88C-4572-9866-F94FE0F1F25A"
      }, {
        "system": "2.16.840.1.113883.2.1.3.2.4.18.35",
        "value": "2100310450"
      } ],
      "status": "finished",
      "type": [ {
        "text": "111 Encounter Referral"
      } ],
      "subject": {
        "reference": "urn:uuid:86ead40b-c4f3-4516-b78b-78443442253b"
      },
      "participant": [ {
        "type": [ {
          "coding": [ {
            "system": "http://hl7.org/fhir/ValueSet/encounter-participant-type",
            "code": "PPRF",
            "display": "Author"
          } ]
        } ],
        "individual": {
          "reference": "urn:uuid:fca452c7-77b3-4d4b-96c6-0bed138f18ae"
        }
      }, {
        "type": [ {
          "text": "Informant"
        } ],
        "individual": {
          "reference": "urn:uuid:42e950d6-8260-4eeb-bf96-0faea0270c44"
        }
      } ],
      "period": {
        "start": "2021-05-13T17:24:56+00:00"
      },
      "location": [ {
        "location": {
          "reference": "urn:uuid:99b8b167-ad2f-439a-a2ac-63f4497d4a3e"
        },
        "status": "active"
      }, {
        "location": {
          "reference": "urn:uuid:65701241-39af-4018-b419-2b6c38589c1c"
        },
        "status": "completed"
      } ],
      "serviceProvider": {
        "reference": "urn:uuid:68656bb1-721a-4554-bc00-150f4fb5f630"
      }
    }
  }, {
    "fullUrl": "urn:uuid:68656bb1-721a-4554-bc00-150f4fb5f630",
    "resource": {
      "resourceType": "Organization",
      "id": "68656bb1-721a-4554-bc00-150f4fb5f630",
      "active": true,
      "type": [ {
        "text": "CST"
      } ],
      "name": "Norfolk and Wisbech 111"
    }
  }, {
    "fullUrl": "urn:uuid:fca452c7-77b3-4d4b-96c6-0bed138f18ae",
    "resource": {
      "resourceType": "Practitioner",
      "id": "fca452c7-77b3-4d4b-96c6-0bed138f18ae",
      "active": true,
      "name": [ {
        "text": "Ben Smythson"
      } ]
    }
  }, {
    "fullUrl": "urn:uuid:42e950d6-8260-4eeb-bf96-0faea0270c44",
    "resource": {
      "resourceType": "RelatedPerson",
      "id": "42e950d6-8260-4eeb-bf96-0faea0270c44",
      "active": true,
      "patient": {
        "reference": "urn:uuid:86ead40b-c4f3-4516-b78b-78443442253b"
      },
      "relationship": {
        "coding": [ {
          "system": "2.16.840.1.113883.2.1.3.2.4.16.45",
          "code": "21",
          "display": "Self"
        }, {
          "system": "http://hl7.org/fhir/v2/0131",
          "code": "C",
          "display": "Emergency Contact"
        } ]
      },
      "name": [ {
        "text": "Test Call Dx10 TEST CALL DX10"
      } ],
      "telecom": [ {
        "system": "phone",
        "value": "tel:01233123123"
      } ],
      "gender": "unknown"
    }
  }, {
    "fullUrl": "urn:uuid:99b8b167-ad2f-439a-a2ac-63f4497d4a3e",
    "resource": {
      "resourceType": "Location",
      "id": "99b8b167-ad2f-439a-a2ac-63f4497d4a3e",
      "managingOrganization": {
        "reference": "urn:uuid:b967d159-c908-481f-a0ca-8f97883d5e83"
      }
    }
  }, {
    "fullUrl": "urn:uuid:b967d159-c908-481f-a0ca-8f97883d5e83",
    "resource": {
      "resourceType": "Organization",
      "id": "b967d159-c908-481f-a0ca-8f97883d5e83",
      "identifier": [ {
        "value": "Z10000"
      } ],
      "type": [ {
        "text": "GP Practice"
      } ],
      "name": "UNKNOWN"
    }
  }, {
    "fullUrl": "urn:uuid:65701241-39af-4018-b419-2b6c38589c1c",
    "resource": {
      "resourceType": "Location",
      "id": "65701241-39af-4018-b419-2b6c38589c1c",
      "address": {
        "type": "physical",
        "line": [ "313 VICTORIA ROAD", "LOWESTOFT" ],
        "postalCode": "NR33 9LS"
      }
    }
  }, {
    "fullUrl": "urn:uuid:86ead40b-c4f3-4516-b78b-78443442253b",
    "resource": {
      "resourceType": "Patient",
      "id": "86ead40b-c4f3-4516-b78b-78443442253b",
      "language": "en",
      "active": true,
      "name": [ {
        "use": "official",
        "family": "TEST CALL DX10",
        "given": [ "Test Call Dx10" ]
      } ],
      "telecom": [ {
        "system": "phone",
        "value": "tel:01233123123"
      } ],
      "gender": "male",
      "birthDate": "1996-03-25",
      "address": [ {
        "use": "home",
        "line": [ "313 VICTORIA ROAD", "LOWESTOFT" ],
        "postalCode": "NR33 9LS"
      }, {
        "type": "physical",
        "line": [ "313 VICTORIA ROAD", "LOWESTOFT" ],
        "postalCode": "NR33 9LS"
      } ],
      "generalPractitioner": [ {
        "reference": "urn:uuid:899ef0c8-87ae-4437-8600-e40b102c92b8"
      } ]
    }
  }, {
    "fullUrl": "urn:uuid:899ef0c8-87ae-4437-8600-e40b102c92b8",
    "resource": {
      "resourceType": "Organization",
      "id": "899ef0c8-87ae-4437-8600-e40b102c92b8",
      "identifier": [ {
        "value": "Z10000"
      } ],
      "type": [ {
        "text": "GP Practice"
      } ],
      "name": "UNKNOWN"
    }
  }, {
    "fullUrl": "urn:uuid:832263b7-0670-4003-8dbb-95e4542537d1",
    "resource": {
      "resourceType": "HealthcareService",
      "id": "832263b7-0670-4003-8dbb-95e4542537d1",
      "active": true,
      "providedBy": {
        "reference": "urn:uuid:168ecf96-5bd7-46ae-947a-e47fc8e51fb1"
      },
      "location": [ {
        "reference": "urn:uuid:47e37d74-30e6-4aa5-88ec-57003d99b3d5"
      } ],
      "name": "Out of Hours GP Service (Waveney) - Kirkley Mill Health Centre, Lowestoft"
    }
  }, {
    "fullUrl": "urn:uuid:47e37d74-30e6-4aa5-88ec-57003d99b3d5",
    "resource": {
      "resourceType": "Location",
      "id": "47e37d74-30e6-4aa5-88ec-57003d99b3d5",
      "managingOrganization": {
        "reference": "urn:uuid:168ecf96-5bd7-46ae-947a-e47fc8e51fb1"
      }
    }
  }, {
    "fullUrl": "urn:uuid:168ecf96-5bd7-46ae-947a-e47fc8e51fb1",
    "resource": {
      "resourceType": "Organization",
      "id": "168ecf96-5bd7-46ae-947a-e47fc8e51fb1",
      "identifier": [ {
        "value": "NVE06"
      } ],
      "type": [ {
        "coding": [ {
          "code": "PRCP",
          "display": "Out of Hours GP Service (Waveney) - Kirkley Mill Health Centre, Lowestoft"
        } ]
      } ],
      "name": "Out of Hours GP Service (Waveney) - Kirkley Mill Health Centre, Lowestoft"
    }
  }, {
    "fullUrl": "urn:uuid:f10b9806-945d-414c-853b-743b591a2df1",
    "resource": {
      "resourceType": "ReferralRequest",
      "id": "f10b9806-945d-414c-853b-743b591a2df1",
      "status": "active",
      "intent": "plan",
      "priority": "routine",
      "subject": {
        "reference": "urn:uuid:86ead40b-c4f3-4516-b78b-78443442253b"
      },
      "context": {
        "reference": "urn:uuid:fb6a4384-add4-42fc-93bb-033b0ebdef73"
      },
      "occurrencePeriod": {
        "start": "2021-10-11T06:41:49+00:00",
        "end": "2021-10-11T07:41:49+00:00"
      },
      "authoredOn": "2021-05-13T17:24:56+00:00",
      "requester": {
        "agent": {
          "reference": "urn:uuid:a5d91488-2e6b-47b3-b902-f607fe309481"
        },
        "onBehalfOf": {
          "reference": "urn:uuid:68656bb1-721a-4554-bc00-150f4fb5f630"
        }
      },
      "recipient": [ {
        "reference": "urn:uuid:d3811896-c80e-4555-8fd1-49cccb61e208"
      }, {
        "reference": "urn:uuid:832263b7-0670-4003-8dbb-95e4542537d1"
      } ],
      "reasonReference": [ {
        "reference": "urn:uuid:048a5a0e-dcc3-47f2-a8c5-eca69e6ac06a"
      } ],
      "supportingInfo": [ {
        "reference": "urn:uuid:5f21c4e5-3a69-4d62-b6bf-108f2cb7a714"
      } ]
    }
  }, {
    "fullUrl": "urn:uuid:5f21c4e5-3a69-4d62-b6bf-108f2cb7a714",
    "resource": {
      "resourceType": "ProcedureRequest",
      "id": "5f21c4e5-3a69-4d62-b6bf-108f2cb7a714",
      "status": "active",
      "intent": "plan",
      "priority": "routine",
      "doNotPerform": false,
      "code": {
        "coding": [ {
          "system": "2.16.840.1.113883.2.1.3.2.4.17.325",
          "code": "Dx10",
          "display": "MUST contact a local service for a Non-Urgent Appointment"
        } ]
      },
      "subject": {
        "reference": "urn:uuid:86ead40b-c4f3-4516-b78b-78443442253b"
      },
      "occurrencePeriod": {
        "start": "2021-10-11T06:41:49+00:00",
        "end": "2021-10-11T07:41:49+00:00"
      },
      "reasonReference": [ {
        "reference": "urn:uuid:048a5a0e-dcc3-47f2-a8c5-eca69e6ac06a"
      } ]
    }
  }, {
    "fullUrl": "urn:uuid:d3811896-c80e-4555-8fd1-49cccb61e208",
    "resource": {
      "resourceType": "Practitioner",
      "id": "d3811896-c80e-4555-8fd1-49cccb61e208",
      "active": true,
      "telecom": [ {
        "system": "phone",
        "value": "tel:01233505450"
      } ],
      "address": [ {
        "type": "physical",
        "line": [ "Kingston House", "The Long Barrow", "Orbital Park", "Ashford", "Kent" ],
        "postalCode": "TN24 0GP"
      } ]
    }
  }, {
    "fullUrl": "urn:uuid:7f638d31-2b9a-4268-96a7-eb261033d328",
    "resource": {
      "resourceType": "Composition",
      "id": "7f638d31-2b9a-4268-96a7-eb261033d328",
      "identifier": {
        "use": "usual",
        "value": "895062D0-60A8-4EB4-9017-5F489D53694D"
      },
      "status": "final",
      "type": {
        "coding": [ {
          "system": "http://snomed.info/sct",
          "code": "371531000",
          "display": "Report of clinical encounter (record artifact)"
        } ]
      },
      "subject": {
        "reference": "urn:uuid:86ead40b-c4f3-4516-b78b-78443442253b"
      },
      "encounter": {
        "reference": "urn:uuid:fb6a4384-add4-42fc-93bb-033b0ebdef73"
      },
      "date": "2021-10-11T06:41:49+00:00",
      "author": [ {
        "reference": "urn:uuid:fca452c7-77b3-4d4b-96c6-0bed138f18ae"
      } ],
      "title": "111 Report",
      "confidentiality": "R",
      "section": [ {
        "section": [ {
          "title": "Patient's Reported Condition",
          "text": {
            "status": "generated",
            "div": "<div xmlns=\"http://www.w3.org/1999/xhtml\">&lt;content&gt;&amp;lt;CLEO Ref: 2100310450&amp;gt; Test Call &lt;br/&gt;\n                                                    &lt;/content&gt;</div>"
          }
        }, {
          "title": "Pathways Disposition",
          "text": {
            "status": "generated",
            "div": "<div xmlns=\"http://www.w3.org/1999/xhtml\">&lt;content&gt;If a pharmacy service is not available contact the GP practice during normal working hours. (Dx10)&lt;/content&gt;\n                                                    &lt;br/&gt;\n                                                    &lt;br/&gt;\n                                                    &lt;content&gt;Selected Service: 1335970392, Out of Hours GP Service (Waveney) - Kirkley Mill Health Centre, Lowestoft, 111&lt;/content&gt;\n                                                    &lt;br/&gt;</div>"
          }
        }, {
          "title": "Consultation Summary",
          "text": {
            "status": "generated",
            "div": "<div xmlns=\"http://www.w3.org/1999/xhtml\">&lt;content&gt;\n                                                        &lt;content&gt;Worst acne feature, blackheads or whiteheads&lt;/content&gt;\n                                                        &lt;br/&gt;\n                                                        &lt;content&gt;Acne&lt;/content&gt;\n                                                        &lt;br/&gt;\n                                                        &lt;content&gt;Warm to touch&lt;/content&gt;\n                                                        &lt;br/&gt;\n                                                        &lt;content&gt;Illness - test&lt;/content&gt;\n                                                        &lt;br/&gt;\n                                                    &lt;/content&gt;</div>"
          }
        }, {
          "title": "Pathways Assessment",
          "text": {
            "status": "generated",
            "div": "<div xmlns=\"http://www.w3.org/1999/xhtml\">&lt;content&gt;An injury or health problem was the reason for the contact.&lt;/content&gt;\n                                                    &lt;br/&gt;\n                                                    &lt;content&gt;Heavy bleeding had not occurred in the previous 2 hours.&lt;/content&gt;\n                                                    &lt;br/&gt;\n                                                    &lt;content&gt;An illness or health problem was the main problem. - test&lt;/content&gt;\n                                                    &lt;br/&gt;\n                                                    &lt;content&gt;The individual was not fighting for breath.&lt;/content&gt;\n                                                    &lt;br/&gt;\n                                                    &lt;content&gt;The main reason for the assessment was not an allergic reaction, heart attack, chest/upper back pain, probable stroke, recent fit/seizure or suicide attempt.&lt;/content&gt;\n                                                    &lt;br/&gt;\n                                                    &lt;content&gt;The main reason for contact was not new confusion, declared diabetic hypo/hyperglycaemia, or ICD shock.&lt;/content&gt;\n                                                    &lt;br/&gt;\n                                                    &lt;content&gt;The skin on the torso felt normal, warm or hot.&lt;/content&gt;\n                                                    &lt;br/&gt;\n                                                    &lt;content&gt;The main problem was not a rash, itch, jaundice, skin lumps or abnormal bruising.&lt;/content&gt;\n                                                    &lt;br/&gt;\n                                                    &lt;content&gt;The main problem was acne, spots or pimples.&lt;/content&gt;\n                                                    &lt;br/&gt;\n                                                    &lt;content&gt;The worst problem with the acne was blackheads or white heads.&lt;/content&gt;\n                                                    &lt;br/&gt;\n                                                    &lt;content&gt;The problem had not persisted for 3 months or got worse over that time.&lt;/content&gt;\n                                                    &lt;br/&gt;</div>"
          }
        }, {
          "title": "Advice Given",
          "text": {
            "status": "generated",
            "div": "<div xmlns=\"http://www.w3.org/1999/xhtml\">&lt;content&gt;Speak to a pharmacist for advice on suitable treatment.&lt;/content&gt;\n                                                    &lt;br/&gt;\n                                                    &lt;content&gt;If there are any new symptoms, or if the condition gets worse, changes or you have any other concerns, call us back.&lt;/content&gt;\n                                                    &lt;br/&gt;</div>"
          }
        }, {
          "title": "SCR Consent",
          "text": {
            "status": "generated",
            "div": "<div xmlns=\"http://www.w3.org/1999/xhtml\">&lt;content&gt;Consent given for SCR sharing&lt;br/&gt;\n                                                        &lt;br/&gt;\n                                                    &lt;/content&gt;</div>"
          }
        } ]
      }, {
        "title": "ReferralRequest",
        "entry": [ {
          "reference": "urn:uuid:f10b9806-945d-414c-853b-743b591a2df1"
        } ]
      } ]
    }
  }, {
    "fullUrl": "urn:uuid:db203ef9-4caa-4a22-b546-d62dca2715c8",
    "resource": {
      "resourceType": "Consent",
      "id": "db203ef9-4caa-4a22-b546-d62dca2715c8",
      "identifier": {
        "use": "usual",
        "value": "895062D0-60A8-4EB4-9017-5F489D53694D"
      },
      "status": "active",
      "patient": {
        "reference": "urn:uuid:86ead40b-c4f3-4516-b78b-78443442253b"
      },
      "period": {
        "start": "2021-05-13T17:24:56+00:00"
      },
      "consentingParty": [ {
        "reference": "urn:uuid:86ead40b-c4f3-4516-b78b-78443442253b"
      } ],
      "action": [ {
        "coding": [ {
          "system": "http://snomed.info/sct",
          "code": "425691002",
          "display": "Consent given for electronic record sharing"
        } ],
        "text": "Consent given for electronic record sharing"
      } ],
      "organization": [ {
        "reference": "urn:uuid:68656bb1-721a-4554-bc00-150f4fb5f630"
      } ],
      "policyRule": "http://hl7.org/fhir/ConsentPolicy/opt-out",
      "data": [ {
        "meaning": "related",
        "reference": {
          "reference": "urn:uuid:fb6a4384-add4-42fc-93bb-033b0ebdef73"
        }
      } ]
    }
  }, {
    "fullUrl": "urn:uuid:048a5a0e-dcc3-47f2-a8c5-eca69e6ac06a",
    "resource": {
      "resourceType": "Condition",
      "id": "048a5a0e-dcc3-47f2-a8c5-eca69e6ac06a",
      "clinicalStatus": "active",
      "verificationStatus": "unknown",
      "subject": {
        "reference": "urn:uuid:86ead40b-c4f3-4516-b78b-78443442253b"
      },
      "context": {
        "reference": "urn:uuid:fb6a4384-add4-42fc-93bb-033b0ebdef73"
      }
    }
  }, {
    "fullUrl": "urn:uuid:65b68669-eec6-4836-bb55-679d436e167c",
    "resource": {
      "resourceType": "Observation",
      "id": "65b68669-eec6-4836-bb55-679d436e167c",
      "status": "final",
      "code": {
        "coding": [ {
          "system": "http://snomed.info/sct",
          "code": "33962009",
          "display": "Presenting complaint"
        } ]
      },
      "subject": {
        "reference": "urn:uuid:86ead40b-c4f3-4516-b78b-78443442253b"
      },
      "context": {
        "reference": "urn:uuid:fb6a4384-add4-42fc-93bb-033b0ebdef73"
      },
      "valueString": "<CLEO Ref: 2100310450> Test Call "
    }
  }, {
    "fullUrl": "urn:uuid:f5156715-dd5a-4bc9-9b0d-98f8b76e4838",
    "resource": {
      "resourceType": "PractitionerRole",
      "id": "f5156715-dd5a-4bc9-9b0d-98f8b76e4838",
      "practitioner": {
        "reference": "urn:uuid:fca452c7-77b3-4d4b-96c6-0bed138f18ae"
      },
      "organization": {
        "reference": "urn:uuid:0fa82314-d4d3-4841-9dcd-1be06646e7fb"
      },
      "code": [ {
        "coding": [ {
          "system": "2.16.840.1.113883.2.1.3.2.4.17.196",
          "code": "NR1690",
          "display": "Call Operator"
        } ]
      } ]
    }
  }, {
    "fullUrl": "urn:uuid:0fa82314-d4d3-4841-9dcd-1be06646e7fb",
    "resource": {
      "resourceType": "Organization",
      "id": "0fa82314-d4d3-4841-9dcd-1be06646e7fb",
      "identifier": [ {
        "value": "NTN08"
      } ],
      "name": "Norfolk and Wisbech 111"
    }
  }, {
    "fullUrl": "urn:uuid:4645a456-75de-4a83-9d09-747300c78650",
    "resource": {
      "resourceType": "RelatedPerson",
      "id": "4645a456-75de-4a83-9d09-747300c78650",
      "patient": {
        "reference": "urn:uuid:86ead40b-c4f3-4516-b78b-78443442253b"
      },
      "relationship": {
        "coding": [ {
          "system": "http://hl7.org/fhir/v2/0131",
          "code": "C",
          "display": "Emergency Contact"
        } ]
      },
      "telecom": [ {
        "system": "phone",
        "value": "tel:01233123123"
      } ]
    }
  }, {
    "fullUrl": "urn:uuid:a5d91488-2e6b-47b3-b902-f607fe309481",
    "resource": {
      "resourceType": "Device",
      "id": "a5d91488-2e6b-47b3-b902-f607fe309481",
      "model": "111 Adaptor",
      "version": "1.0.0"
    }
  }, {
    "fullUrl": "urn:uuid:4a416e4e-935d-46ce-b907-cdb0c0882e0d",
    "resource": {
      "resourceType": "List",
      "id": "4a416e4e-935d-46ce-b907-cdb0c0882e0d",
      "status": "current",
      "mode": "working",
      "title": "111 Report List",
      "code": {
        "coding": [ {
          "system": "http://snomed.info/sct",
          "code": "225390008",
          "display": "Triage"
        } ]
      },
      "subject": {
        "reference": "urn:uuid:86ead40b-c4f3-4516-b78b-78443442253b"
      },
      "encounter": {
        "reference": "urn:uuid:fb6a4384-add4-42fc-93bb-033b0ebdef73"
      },
      "date": "2021-10-11T06:41:49+00:00",
      "source": {
        "reference": "urn:uuid:a5d91488-2e6b-47b3-b902-f607fe309481"
      },
      "orderedBy": {
        "coding": [ {
          "system": "http://hl7.org/fhir/list-order",
          "code": "event-date",
          "display": "Sorted by Event Date"
        } ]
      },
      "entry": [ {
        "item": {
          "reference": "urn:uuid:b967d159-c908-481f-a0ca-8f97883d5e83"
        }
      }, {
        "item": {
          "reference": "urn:uuid:0fa82314-d4d3-4841-9dcd-1be06646e7fb"
        }
      }, {
        "item": {
          "reference": "urn:uuid:4645a456-75de-4a83-9d09-747300c78650"
        }
      }, {
        "item": {
          "reference": "urn:uuid:42e950d6-8260-4eeb-bf96-0faea0270c44"
        }
      }, {
        "item": {
          "reference": "urn:uuid:048a5a0e-dcc3-47f2-a8c5-eca69e6ac06a"
        }
      }, {
        "item": {
          "reference": "urn:uuid:d3811896-c80e-4555-8fd1-49cccb61e208"
        }
      }, {
        "item": {
          "reference": "urn:uuid:65b68669-eec6-4836-bb55-679d436e167c"
        }
      }, {
        "item": {
          "reference": "urn:uuid:168ecf96-5bd7-46ae-947a-e47fc8e51fb1"
        }
      }, {
        "item": {
          "reference": "urn:uuid:68656bb1-721a-4554-bc00-150f4fb5f630"
        }
      }, {
        "item": {
          "reference": "urn:uuid:899ef0c8-87ae-4437-8600-e40b102c92b8"
        }
      }, {
        "item": {
          "reference": "urn:uuid:fca452c7-77b3-4d4b-96c6-0bed138f18ae"
        }
      }, {
        "item": {
          "reference": "urn:uuid:f10b9806-945d-414c-853b-743b591a2df1"
        }
      } ]
    }
  } ]
}