{
  "resourceType": "Bundle",
  "identifier": {
    "type": {
      "text": "ClinicalDocument VersionNumber"
    },
    "value": "1"
  },
  "type": "message",
  "entry": [ {
    "fullUrl": "urn:uuid:F7916D36-4D5F-4A64-BD08-644E8A234AE2",
    "resource": {
      "resourceType": "MessageHeader",
      "id": "F7916D36-4D5F-4A64-BD08-644E8A234AE2",
      "event": {
        "system": "https://fhir.nhs.uk/STU3/CodeSystem/EventType-1",
        "code": "referral-1",
        "display": "Referral"
      },
      "destination": [ {
        "endpoint": "urn:nhs-uk:addressing:ods:NVE06:DOSServiceID:1335970392"
      } ],
      "timestamp": "2021-05-13T17:24:56.000+00:00",
      "source": {
        "name": "NHS 111 Adaptor",
        "endpoint": "http://localhost:8080/report"
      },
      "reason": {
        "coding": [ {
          "system": "urn:nhs-itk:ns:201005:interaction",
          "code": "urn:nhs-itk:interaction:primaryOutofHourRecipientNHS111CDADocument-v2-0"
        } ]
      }
    }
  }, {
    "fullUrl": "urn:uuid:63eb76ca-304d-457f-9148-93f5798a14a4",
    "resource": {
      "resourceType": "Encounter",
      "id": "63eb76ca-304d-457f-9148-93f5798a14a4",
      "identifier": [ {
        "system": "2.16.840.1.113883.2.1.3.2.4.18.34",
        "value": "2DBAE50F-F88C-4572-9866-F94FE0F1F25A"
      }, {
        "system": "2.16.840.1.113883.2.1.3.2.4.18.35",
        "value": "2100310450"
      } ],
      "status": "finished",
      "type": [ {
        "text": "111 Encounter Referral"
      } ],
      "subject": {
        "reference": "urn:uuid:b6320543-039d-48f5-a0f9-2362ce17b5ac"
      },
      "participant": [ {
        "type": [ {
          "coding": [ {
            "system": "http://hl7.org/fhir/ValueSet/encounter-participant-type",
            "code": "PPRF",
            "display": "Author"
          } ]
        } ],
        "individual": {
          "reference": "urn:uuid:58929690-8c8b-4c95-99cf-dbc2d44c0f61"
        }
      }, {
        "type": [ {
          "text": "Informant"
        } ],
        "individual": {
          "reference": "urn:uuid:e8f012c4-4334-4fbd-b8c5-534e10557fa1"
        }
      } ],
      "period": {
        "start": "2021-05-13T17:24:56+00:00"
      },
      "location": [ {
        "location": {
          "reference": "urn:uuid:b3b34345-e5d6-4e12-ae6a-f2b9842a2b74"
        },
        "status": "active"
      }, {
        "location": {
          "reference": "urn:uuid:d9dfbc8e-24d9-4ee5-9e92-2a8f4969497c"
        },
        "status": "completed"
      } ],
      "serviceProvider": {
        "reference": "urn:uuid:6a043ea1-6493-45cc-9302-2ecddcaa5649"
      }
    }
  }, {
    "fullUrl": "urn:uuid:6a043ea1-6493-45cc-9302-2ecddcaa5649",
    "resource": {
      "resourceType": "Organization",
      "id": "6a043ea1-6493-45cc-9302-2ecddcaa5649",
      "active": true,
      "type": [ {
        "text": "CST"
      } ],
      "name": "Norfolk and Wisbech 111"
    }
  }, {
    "fullUrl": "urn:uuid:58929690-8c8b-4c95-99cf-dbc2d44c0f61",
    "resource": {
      "resourceType": "Practitioner",
      "id": "58929690-8c8b-4c95-99cf-dbc2d44c0f61",
      "active": true,
      "name": [ {
        "text": "Ben Smythson"
      } ]
    }
  }, {
    "fullUrl": "urn:uuid:e8f012c4-4334-4fbd-b8c5-534e10557fa1",
    "resource": {
      "resourceType": "RelatedPerson",
      "id": "e8f012c4-4334-4fbd-b8c5-534e10557fa1",
      "active": true,
      "patient": {
        "reference": "urn:uuid:b6320543-039d-48f5-a0f9-2362ce17b5ac"
      },
      "relationship": {
        "coding": [ {
          "system": "2.16.840.1.113883.2.1.3.2.4.16.45",
          "code": "21",
          "display": "Self"
        }, {
          "system": "http://hl7.org/fhir/v2/0131",
          "code": "C",
          "display": "Emergency Contact"
        } ]
      },
      "name": [ {
        "text": "Test Call Dx10 TEST CALL DX10"
      } ],
      "telecom": [ {
        "system": "phone",
        "value": "tel:01233123123"
      } ],
      "gender": "unknown"
    }
  }, {
    "fullUrl": "urn:uuid:b3b34345-e5d6-4e12-ae6a-f2b9842a2b74",
    "resource": {
      "resourceType": "Location",
      "id": "b3b34345-e5d6-4e12-ae6a-f2b9842a2b74",
      "managingOrganization": {
        "reference": "urn:uuid:4ac4e01b-9b11-4020-af80-d9df1f3e3c4e"
      }
    }
  }, {
    "fullUrl": "urn:uuid:4ac4e01b-9b11-4020-af80-d9df1f3e3c4e",
    "resource": {
      "resourceType": "Organization",
      "id": "4ac4e01b-9b11-4020-af80-d9df1f3e3c4e",
      "identifier": [ {
        "value": "Z10000"
      } ],
      "type": [ {
        "text": "GP Practice"
      } ],
      "name": "UNKNOWN"
    }
  }, {
    "fullUrl": "urn:uuid:d9dfbc8e-24d9-4ee5-9e92-2a8f4969497c",
    "resource": {
      "resourceType": "Location",
      "id": "d9dfbc8e-24d9-4ee5-9e92-2a8f4969497c",
      "address": {
        "type": "physical",
        "line": [ "313 VICTORIA ROAD", "LOWESTOFT" ],
        "postalCode": "NR33 9LS"
      }
    }
  }, {
    "fullUrl": "urn:uuid:b6320543-039d-48f5-a0f9-2362ce17b5ac",
    "resource": {
      "resourceType": "Patient",
      "id": "b6320543-039d-48f5-a0f9-2362ce17b5ac",
      "language": "en",
      "active": true,
      "name": [ {
        "use": "official",
        "family": "TEST CALL DX10",
        "given": [ "Test Call Dx10" ]
      } ],
      "telecom": [ {
        "system": "phone",
        "value": "tel:01233123123"
      } ],
      "gender": "male",
      "birthDate": "1996-03-25",
      "address": [ {
        "use": "home",
        "line": [ "313 VICTORIA ROAD", "LOWESTOFT" ],
        "postalCode": "NR33 9LS"
      }, {
        "type": "physical",
        "line": [ "313 VICTORIA ROAD", "LOWESTOFT" ],
        "postalCode": "NR33 9LS"
      } ],
      "generalPractitioner": [ {
        "reference": "urn:uuid:cf8c4516-8e34-4413-a473-d3bb897a24c4"
      } ]
    }
  }, {
    "fullUrl": "urn:uuid:cf8c4516-8e34-4413-a473-d3bb897a24c4",
    "resource": {
      "resourceType": "Organization",
      "id": "cf8c4516-8e34-4413-a473-d3bb897a24c4",
      "identifier": [ {
        "value": "Z10000"
      } ],
      "type": [ {
        "text": "GP Practice"
      } ],
      "name": "UNKNOWN"
    }
  }, {
    "fullUrl": "urn:uuid:a6bf91c3-e1fb-408e-82c0-0fd73c6f9f06",
    "resource": {
      "resourceType": "HealthcareService",
      "id": "a6bf91c3-e1fb-408e-82c0-0fd73c6f9f06",
      "active": true,
      "providedBy": {
        "reference": "urn:uuid:fa65d1a7-07b7-4c9f-ad9f-580387aea7cb"
      },
      "location": [ {
        "reference": "urn:uuid:491468b8-e44f-4d7c-94e7-1bec503424b0"
      } ],
      "name": "Out of Hours GP Service (Waveney) - Kirkley Mill Health Centre, Lowestoft"
    }
  }, {
    "fullUrl": "urn:uuid:491468b8-e44f-4d7c-94e7-1bec503424b0",
    "resource": {
      "resourceType": "Location",
      "id": "491468b8-e44f-4d7c-94e7-1bec503424b0",
      "managingOrganization": {
        "reference": "urn:uuid:fa65d1a7-07b7-4c9f-ad9f-580387aea7cb"
      }
    }
  }, {
    "fullUrl": "urn:uuid:fa65d1a7-07b7-4c9f-ad9f-580387aea7cb",
    "resource": {
      "resourceType": "Organization",
      "id": "fa65d1a7-07b7-4c9f-ad9f-580387aea7cb",
      "identifier": [ {
        "value": "NVE06"
      } ],
      "type": [ {
        "coding": [ {
          "code": "PRCP",
          "display": "Out of Hours GP Service (Waveney) - Kirkley Mill Health Centre, Lowestoft"
        } ]
      } ],
      "name": "Out of Hours GP Service (Waveney) - Kirkley Mill Health Centre, Lowestoft"
    }
  }, {
    "fullUrl": "urn:uuid:ddfe4aeb-bdc4-4899-9c97-2792ca76632e",
    "resource": {
      "resourceType": "ReferralRequest",
      "id": "ddfe4aeb-bdc4-4899-9c97-2792ca76632e",
      "status": "active",
      "intent": "plan",
      "priority": "routine",
      "subject": {
        "reference": "urn:uuid:b6320543-039d-48f5-a0f9-2362ce17b5ac"
      },
      "context": {
        "reference": "urn:uuid:63eb76ca-304d-457f-9148-93f5798a14a4"
      },
      "occurrencePeriod": {
        "start": "2021-10-01T07:34:02+00:00",
        "end": "2021-10-01T08:34:02+00:00"
      },
      "authoredOn": "2021-05-13T17:24:56+00:00",
      "requester": {
        "agent": {
          "reference": "urn:uuid:652827b3-32de-41f6-bdc3-0d47137557c4"
        },
        "onBehalfOf": {
          "reference": "urn:uuid:6a043ea1-6493-45cc-9302-2ecddcaa5649"
        }
      },
      "recipient": [ {
        "reference": "urn:uuid:74e533c6-fe2c-45c8-9f8c-0a22ac12927a"
      }, {
        "reference": "urn:uuid:a6bf91c3-e1fb-408e-82c0-0fd73c6f9f06"
      } ],
      "reasonReference": [ {
        "reference": "urn:uuid:7b28c3d8-460a-4706-b89b-3f3248d15bb9"
      } ],
      "supportingInfo": [ {
        "reference": "urn:uuid:f2a95b67-d920-4b06-a8ae-608d1abe2a0a"
      } ]
    }
  }, {
    "fullUrl": "urn:uuid:f2a95b67-d920-4b06-a8ae-608d1abe2a0a",
    "resource": {
      "resourceType": "ProcedureRequest",
      "id": "f2a95b67-d920-4b06-a8ae-608d1abe2a0a",
      "status": "active",
      "intent": "plan",
      "priority": "routine",
      "doNotPerform": false,
      "code": {
        "coding": [ {
          "system": "2.16.840.1.113883.2.1.3.2.4.17.325",
          "code": "Dx10",
          "display": "MUST contact a local service for a Non-Urgent Appointment"
        } ]
      },
      "subject": {
        "reference": "urn:uuid:b6320543-039d-48f5-a0f9-2362ce17b5ac"
      },
      "occurrencePeriod": {
        "start": "2021-10-01T07:34:02+00:00",
        "end": "2021-10-01T08:34:02+00:00"
      },
      "reasonReference": [ {
        "reference": "urn:uuid:7b28c3d8-460a-4706-b89b-3f3248d15bb9"
      } ]
    }
  }, {
    "fullUrl": "urn:uuid:74e533c6-fe2c-45c8-9f8c-0a22ac12927a",
    "resource": {
      "resourceType": "Practitioner",
      "id": "74e533c6-fe2c-45c8-9f8c-0a22ac12927a",
      "active": true,
      "telecom": [ {
        "system": "phone",
        "value": "tel:01233505450"
      } ],
      "address": [ {
        "type": "physical",
        "line": [ "Kingston House", "The Long Barrow", "Orbital Park", "Ashford", "Kent" ],
        "postalCode": "TN24 0GP"
      } ]
    }
  }, {
    "fullUrl": "urn:uuid:0799d30e-43ae-4e65-bfe8-32ef2975e362",
    "resource": {
      "resourceType": "Composition",
      "id": "0799d30e-43ae-4e65-bfe8-32ef2975e362",
      "identifier": {
        "use": "usual",
        "value": "895062D0-60A8-4EB4-9017-5F489D53694D"
      },
      "status": "final",
      "type": {
        "coding": [ {
          "system": "http://snomed.info/sct",
          "code": "371531000",
          "display": "Report of clinical encounter (record artifact)"
        } ]
      },
      "subject": {
        "reference": "urn:uuid:b6320543-039d-48f5-a0f9-2362ce17b5ac"
      },
      "encounter": {
        "reference": "urn:uuid:63eb76ca-304d-457f-9148-93f5798a14a4"
      },
      "date": "2021-10-01T07:34:02+00:00",
      "author": [ {
        "reference": "urn:uuid:58929690-8c8b-4c95-99cf-dbc2d44c0f61"
      } ],
      "title": "111 Report",
      "confidentiality": "R",
      "section": [ {
        "section": [ {
          "title": "Patient's Reported Condition",
          "text": {
            "status": "generated",
            "div": "<div xmlns=\"http://www.w3.org/1999/xhtml\">&lt;content&gt;&amp;lt;CLEO Ref: 2100310450&amp;gt; Test Call &lt;br/&gt;\n                                                    &lt;/content&gt;</div>"
          }
        }, {
          "title": "Pathways Disposition",
          "text": {
            "status": "generated",
            "div": "<div xmlns=\"http://www.w3.org/1999/xhtml\">&lt;content&gt;If a pharmacy service is not available contact the GP practice during normal working hours. (Dx10)&lt;/content&gt;\n                                                    &lt;br/&gt;\n                                                    &lt;br/&gt;\n                                                    &lt;content&gt;Selected Service: 1335970392, Out of Hours GP Service (Waveney) - Kirkley Mill Health Centre, Lowestoft, 111&lt;/content&gt;\n                                                    &lt;br/&gt;</div>"
          }
        }, {
          "title": "Consultation Summary",
          "text": {
            "status": "generated",
            "div": "<div xmlns=\"http://www.w3.org/1999/xhtml\">&lt;content&gt;\n                                                        &lt;content&gt;Worst acne feature, blackheads or whiteheads&lt;/content&gt;\n                                                        &lt;br/&gt;\n                                                        &lt;content&gt;Acne&lt;/content&gt;\n                                                        &lt;br/&gt;\n                                                        &lt;content&gt;Warm to touch&lt;/content&gt;\n                                                        &lt;br/&gt;\n                                                        &lt;content&gt;Illness - test&lt;/content&gt;\n                                                        &lt;br/&gt;\n                                                    &lt;/content&gt;</div>"
          }
        }, {
          "title": "Pathways Assessment",
          "text": {
            "status": "generated",
            "div": "<div xmlns=\"http://www.w3.org/1999/xhtml\">&lt;content&gt;An injury or health problem was the reason for the contact.&lt;/content&gt;\n                                                    &lt;br/&gt;\n                                                    &lt;content&gt;Heavy bleeding had not occurred in the previous 2 hours.&lt;/content&gt;\n                                                    &lt;br/&gt;\n                                                    &lt;content&gt;An illness or health problem was the main problem. - test&lt;/content&gt;\n                                                    &lt;br/&gt;\n                                                    &lt;content&gt;The individual was not fighting for breath.&lt;/content&gt;\n                                                    &lt;br/&gt;\n                                                    &lt;content&gt;The main reason for the assessment was not an allergic reaction, heart attack, chest/upper back pain, probable stroke, recent fit/seizure or suicide attempt.&lt;/content&gt;\n                                                    &lt;br/&gt;\n                                                    &lt;content&gt;The main reason for contact was not new confusion, declared diabetic hypo/hyperglycaemia, or ICD shock.&lt;/content&gt;\n                                                    &lt;br/&gt;\n                                                    &lt;content&gt;The skin on the torso felt normal, warm or hot.&lt;/content&gt;\n                                                    &lt;br/&gt;\n                                                    &lt;content&gt;The main problem was not a rash, itch, jaundice, skin lumps or abnormal bruising.&lt;/content&gt;\n                                                    &lt;br/&gt;\n                                                    &lt;content&gt;The main problem was acne, spots or pimples.&lt;/content&gt;\n                                                    &lt;br/&gt;\n                                                    &lt;content&gt;The worst problem with the acne was blackheads or white heads.&lt;/content&gt;\n                                                    &lt;br/&gt;\n                                                    &lt;content&gt;The problem had not persisted for 3 months or got worse over that time.&lt;/content&gt;\n                                                    &lt;br/&gt;</div>"
          }
        }, {
          "title": "Advice Given",
          "text": {
            "status": "generated",
            "div": "<div xmlns=\"http://www.w3.org/1999/xhtml\">&lt;content&gt;Speak to a pharmacist for advice on suitable treatment.&lt;/content&gt;\n                                                    &lt;br/&gt;\n                                                    &lt;content&gt;If there are any new symptoms, or if the condition gets worse, changes or you have any other concerns, call us back.&lt;/content&gt;\n                                                    &lt;br/&gt;</div>"
          }
        }, {
          "title": "SCR Consent",
          "text": {
            "status": "generated",
            "div": "<div xmlns=\"http://www.w3.org/1999/xhtml\">&lt;content&gt;Consent given for SCR sharing&lt;br/&gt;\n                                                        &lt;br/&gt;\n                                                    &lt;/content&gt;</div>"
          }
        } ]
      }, {
        "title": "ReferralRequest",
        "entry": [ {
          "reference": "urn:uuid:ddfe4aeb-bdc4-4899-9c97-2792ca76632e"
        } ]
      } ]
    }
  }, {
    "fullUrl": "urn:uuid:b8aade2e-100a-47e9-acd8-e5bbf4c95bcf",
    "resource": {
      "resourceType": "Consent",
      "id": "b8aade2e-100a-47e9-acd8-e5bbf4c95bcf",
      "identifier": {
        "use": "usual",
        "value": "895062D0-60A8-4EB4-9017-5F489D53694D"
      },
      "status": "active",
      "patient": {
        "reference": "urn:uuid:b6320543-039d-48f5-a0f9-2362ce17b5ac"
      },
      "period": {
        "start": "2021-05-13T17:24:56+00:00"
      },
      "consentingParty": [ {
        "reference": "urn:uuid:b6320543-039d-48f5-a0f9-2362ce17b5ac"
      } ],
      "action": [ {
        "coding": [ {
          "system": "http://snomed.info/sct",
          "code": "425691002",
          "display": "Consent given for electronic record sharing"
        } ],
        "text": "Consent given for electronic record sharing"
      } ],
      "organization": [ {
        "reference": "urn:uuid:6a043ea1-6493-45cc-9302-2ecddcaa5649"
      } ],
      "policyRule": "http://hl7.org/fhir/ConsentPolicy/opt-out",
      "data": [ {
        "meaning": "related",
        "reference": {
          "reference": "urn:uuid:63eb76ca-304d-457f-9148-93f5798a14a4"
        }
      } ]
    }
  }, {
    "fullUrl": "urn:uuid:7b28c3d8-460a-4706-b89b-3f3248d15bb9",
    "resource": {
      "resourceType": "Condition",
      "id": "7b28c3d8-460a-4706-b89b-3f3248d15bb9",
      "clinicalStatus": "active",
      "verificationStatus": "unknown",
      "subject": {
        "reference": "urn:uuid:b6320543-039d-48f5-a0f9-2362ce17b5ac"
      },
      "context": {
        "reference": "urn:uuid:63eb76ca-304d-457f-9148-93f5798a14a4"
      }
    }
  }, {
    "fullUrl": "urn:uuid:968aec1e-4f49-4c9a-bbd4-8b6cb06d00e0",
    "resource": {
      "resourceType": "Observation",
      "id": "968aec1e-4f49-4c9a-bbd4-8b6cb06d00e0",
      "status": "final",
      "code": {
        "coding": [ {
          "system": "http://snomed.info/sct",
          "code": "33962009",
          "display": "Presenting complaint"
        } ]
      },
      "subject": {
        "reference": "urn:uuid:b6320543-039d-48f5-a0f9-2362ce17b5ac"
      },
      "context": {
        "reference": "urn:uuid:63eb76ca-304d-457f-9148-93f5798a14a4"
      },
      "valueString": "<CLEO Ref: 2100310450> Test Call "
    }
  }, {
    "fullUrl": "urn:uuid:6b053a4b-3e72-4959-885b-8bde1d75314b",
    "resource": {
      "resourceType": "PractitionerRole",
      "id": "6b053a4b-3e72-4959-885b-8bde1d75314b",
      "practitioner": {
        "reference": "urn:uuid:58929690-8c8b-4c95-99cf-dbc2d44c0f61"
      },
      "organization": {
        "reference": "urn:uuid:2efc7a96-6cec-4d5b-b691-e6da70f07896"
      },
      "code": [ {
        "coding": [ {
          "system": "2.16.840.1.113883.2.1.3.2.4.17.196",
          "code": "NR1690",
          "display": "Call Operator"
        } ]
      } ]
    }
  }, {
    "fullUrl": "urn:uuid:2efc7a96-6cec-4d5b-b691-e6da70f07896",
    "resource": {
      "resourceType": "Organization",
      "id": "2efc7a96-6cec-4d5b-b691-e6da70f07896",
      "identifier": [ {
        "value": "NTN08"
      } ],
      "name": "Norfolk and Wisbech 111"
    }
  }, {
    "fullUrl": "urn:uuid:4cec21e3-ae7b-4021-90b3-6d9d43aaf529",
    "resource": {
      "resourceType": "RelatedPerson",
      "id": "4cec21e3-ae7b-4021-90b3-6d9d43aaf529",
      "patient": {
        "reference": "urn:uuid:b6320543-039d-48f5-a0f9-2362ce17b5ac"
      },
      "relationship": {
        "coding": [ {
          "system": "http://hl7.org/fhir/v2/0131",
          "code": "C",
          "display": "Emergency Contact"
        } ]
      },
      "telecom": [ {
        "system": "phone",
        "value": "tel:01233123123"
      } ]
    }
  }, {
    "fullUrl": "urn:uuid:652827b3-32de-41f6-bdc3-0d47137557c4",
    "resource": {
      "resourceType": "Device",
      "id": "652827b3-32de-41f6-bdc3-0d47137557c4",
      "model": "111 Adaptor",
      "version": "0.11.0"
    }
  }, {
    "fullUrl": "urn:uuid:d6ce864e-f006-4ce4-9ebd-6f6c338ab8e1",
    "resource": {
      "resourceType": "List",
      "id": "d6ce864e-f006-4ce4-9ebd-6f6c338ab8e1",
      "status": "current",
      "mode": "working",
      "title": "111 Report List",
      "code": {
        "coding": [ {
          "system": "http://snomed.info/sct",
          "code": "225390008",
          "display": "Triage"
        } ]
      },
      "subject": {
        "reference": "urn:uuid:b6320543-039d-48f5-a0f9-2362ce17b5ac"
      },
      "encounter": {
        "reference": "urn:uuid:63eb76ca-304d-457f-9148-93f5798a14a4"
      },
      "date": "2021-10-01T07:34:02+00:00",
      "source": {
        "reference": "urn:uuid:652827b3-32de-41f6-bdc3-0d47137557c4"
      },
      "orderedBy": {
        "coding": [ {
          "system": "http://hl7.org/fhir/list-order",
          "code": "event-date",
          "display": "Sorted by Event Date"
        } ]
      },
      "entry": [ {
        "item": {
          "reference": "urn:uuid:2efc7a96-6cec-4d5b-b691-e6da70f07896"
        }
      }, {
        "item": {
          "reference": "urn:uuid:e8f012c4-4334-4fbd-b8c5-534e10557fa1"
        }
      }, {
        "item": {
          "reference": "urn:uuid:fa65d1a7-07b7-4c9f-ad9f-580387aea7cb"
        }
      }, {
        "item": {
          "reference": "urn:uuid:74e533c6-fe2c-45c8-9f8c-0a22ac12927a"
        }
      }, {
        "item": {
          "reference": "urn:uuid:7b28c3d8-460a-4706-b89b-3f3248d15bb9"
        }
      }, {
        "item": {
          "reference": "urn:uuid:6a043ea1-6493-45cc-9302-2ecddcaa5649"
        }
      }, {
        "item": {
          "reference": "urn:uuid:968aec1e-4f49-4c9a-bbd4-8b6cb06d00e0"
        }
      }, {
        "item": {
          "reference": "urn:uuid:4ac4e01b-9b11-4020-af80-d9df1f3e3c4e"
        }
      }, {
        "item": {
          "reference": "urn:uuid:58929690-8c8b-4c95-99cf-dbc2d44c0f61"
        }
      }, {
        "item": {
          "reference": "urn:uuid:cf8c4516-8e34-4413-a473-d3bb897a24c4"
        }
      }, {
        "item": {
          "reference": "urn:uuid:4cec21e3-ae7b-4021-90b3-6d9d43aaf529"
        }
      }, {
        "item": {
          "reference": "urn:uuid:ddfe4aeb-bdc4-4899-9c97-2792ca76632e"
        }
      } ]
    }
  } ]
}