{
  "resourceType": "Bundle",
  "identifier": {
    "type": {
      "text": "ClinicalDocument VersionNumber"
    },
    "value": "2"
  },
  "type": "message",
  "entry": [ {
    "fullUrl": "urn:uuid:2B77B3F5-3016-4A6D-821F-152CE420E58D",
    "resource": {
      "resourceType": "MessageHeader",
      "id": "2B77B3F5-3016-4A6D-821F-152CE420E58D",
      "event": {
        "system": "https://fhir.nhs.uk/STU3/CodeSystem/EventType-1",
        "code": "referral-1",
        "display": "Referral"
      },
      "destination": [ {
        "endpoint": "urn:nhs-uk:addressing:ods:EM396"
      } ],
      "timestamp": "2017-01-01T20:00:00.000+00:00",
      "source": {
        "name": "NHS 111 Adaptor",
        "endpoint": "http://localhost:8080/report"
      },
      "reason": {
        "coding": [ {
          "system": "urn:nhs-itk:ns:201005:interaction",
          "code": "urn:nhs-itk:interaction:primaryEmergencyDepartmentRecipientNHS111CDADocument-v2-0"
        } ]
      }
    }
  }, {
    "fullUrl": "urn:uuid:2a5ed6fa-f040-43ca-8835-bab61097e693",
    "resource": {
      "resourceType": "Encounter",
      "id": "2a5ed6fa-f040-43ca-8835-bab61097e693",
      "identifier": [ {
        "system": "2.16.840.1.113883.2.1.3.2.4.18.49",
        "value": "LOC665"
      }, {
        "system": "2.16.840.1.113883.2.1.3.2.4.18.34",
        "value": "CASEREF1234"
      }, {
        "system": "2.16.840.1.113883.2.1.3.2.4.18.35",
        "value": "CASEID123"
      } ],
      "status": "finished",
      "type": [ {
        "text": "111 Encounter Referral"
      } ],
      "subject": {
        "reference": "urn:uuid:be63024c-aceb-4021-945f-54a3334b1879"
      },
      "participant": [ {
        "type": [ {
          "text": "CALLBCK"
        } ],
        "individual": {
          "reference": "urn:uuid:569808e2-385d-4a80-b8ce-a293daadae90"
        }
      }, {
        "type": [ {
          "coding": [ {
            "system": "http://hl7.org/fhir/ValueSet/encounter-participant-type",
            "code": "PPRF",
            "display": "Author"
          } ]
        } ],
        "individual": {
          "reference": "urn:uuid:e315603a-f2e9-45ed-a543-ee17d5534548"
        }
      }, {
        "type": [ {
          "text": "Informant"
        } ],
        "individual": {
          "reference": "urn:uuid:f3a14f30-8be4-4271-b0aa-7cde40439dff"
        }
      }, {
        "type": [ {
          "coding": [ {
            "system": "http://hl7.org/fhir/ValueSet/encounter-participant-type",
            "code": "ATND",
            "display": "Responsible Party"
          } ]
        } ],
        "individual": {
          "reference": "urn:uuid:51804a37-d8c2-485b-b71e-4a25820f0068"
        }
      } ],
      "appointment": {
        "reference": "urn:uuid:090cba96-b9d9-4714-bef4-d9cc7aaebccf"
      },
      "period": {
        "start": "2017-01-01T20:00:00+00:00"
      },
      "location": [ {
        "location": {
          "reference": "urn:uuid:c0fab6f0-37d3-4847-ac42-f2504c921d52"
        },
        "status": "active"
      }, {
        "location": {
          "reference": "urn:uuid:dd60a1ca-dd48-4694-8b18-22d7af27f471"
        },
        "status": "completed"
      } ],
      "serviceProvider": {
        "reference": "urn:uuid:2c2350c0-6168-4ba3-a784-03ce09df983c"
      }
    }
  }, {
    "fullUrl": "urn:uuid:2c2350c0-6168-4ba3-a784-03ce09df983c",
    "resource": {
      "resourceType": "Organization",
      "id": "2c2350c0-6168-4ba3-a784-03ce09df983c",
      "active": true,
      "type": [ {
        "text": "CST"
      } ],
      "name": "Medway NHS Foundation Trust"
    }
  }, {
    "fullUrl": "urn:uuid:569808e2-385d-4a80-b8ce-a293daadae90",
    "resource": {
      "resourceType": "Practitioner",
      "id": "569808e2-385d-4a80-b8ce-a293daadae90",
      "active": true,
      "name": [ {
        "text": "Call Centre Manager"
      } ],
      "telecom": [ {
        "system": "phone",
        "value": "tel:08001111111"
      } ]
    }
  }, {
    "fullUrl": "urn:uuid:e315603a-f2e9-45ed-a543-ee17d5534548",
    "resource": {
      "resourceType": "Practitioner",
      "id": "e315603a-f2e9-45ed-a543-ee17d5534548",
      "active": true,
      "name": [ {
        "use": "official",
        "family": "Jones",
        "given": [ "Mary" ]
      } ]
    }
  }, {
    "fullUrl": "urn:uuid:f3a14f30-8be4-4271-b0aa-7cde40439dff",
    "resource": {
      "resourceType": "RelatedPerson",
      "id": "f3a14f30-8be4-4271-b0aa-7cde40439dff",
      "active": true,
      "patient": {
        "reference": "urn:uuid:be63024c-aceb-4021-945f-54a3334b1879"
      },
      "relationship": {
        "coding": [ {
          "system": "2.16.840.1.113883.2.1.3.2.4.16.45",
          "code": "01",
          "display": "Spouse"
        } ]
      },
      "name": [ {
        "use": "official",
        "family": "Bloggs",
        "given": [ "Helga" ]
      } ],
      "telecom": [ {
        "system": "phone",
        "value": "tel:07886554123",
        "use": "mobile"
      }, {
        "system": "phone",
        "value": "tel:01783678321"
      } ],
      "gender": "unknown",
      "address": [ {
        "use": "home",
        "line": [ "43 Summers Avenue", "Somerset Street" ],
        "city": "Medway",
        "postalCode": "ME5 7TY"
      } ]
    }
  }, {
    "fullUrl": "urn:uuid:51804a37-d8c2-485b-b71e-4a25820f0068",
    "resource": {
      "resourceType": "Practitioner",
      "id": "51804a37-d8c2-485b-b71e-4a25820f0068",
      "active": true,
      "name": [ {
        "use": "official",
        "family": "Cornwell",
        "given": [ "Dave" ]
      } ]
    }
  }, {
    "fullUrl": "urn:uuid:c0fab6f0-37d3-4847-ac42-f2504c921d52",
    "resource": {
      "resourceType": "Location",
      "id": "c0fab6f0-37d3-4847-ac42-f2504c921d52",
      "managingOrganization": {
        "reference": "urn:uuid:93c7c154-b44d-41fa-ab3d-4d4c3a722856"
      }
    }
  }, {
    "fullUrl": "urn:uuid:93c7c154-b44d-41fa-ab3d-4d4c3a722856",
    "resource": {
      "resourceType": "Organization",
      "id": "93c7c154-b44d-41fa-ab3d-4d4c3a722856",
      "identifier": [ {
        "value": "V396F"
      } ],
      "type": [ {
        "text": "GP Practice"
      } ],
      "name": "Medway Medical Practice",
      "telecom": [ {
        "system": "phone",
        "value": "tel:01634111222",
        "use": "work"
      } ],
      "address": [ {
        "use": "work",
        "line": [ "Springer Street" ],
        "city": "Medway",
        "postalCode": "ME5 5TY"
      } ]
    }
  }, {
    "fullUrl": "urn:uuid:dd60a1ca-dd48-4694-8b18-22d7af27f471",
    "resource": {
      "resourceType": "Location",
      "id": "dd60a1ca-dd48-4694-8b18-22d7af27f471",
      "name": "Incident Location",
      "address": {
        "type": "physical",
        "text": "Follow the high street and turn left by Boots",
        "line": [ "2, Brancaster Road" ],
        "city": "Medway",
        "postalCode": "ME5 4LS",
        "country": "GB"
      }
    }
  }, {
    "fullUrl": "urn:uuid:be63024c-aceb-4021-945f-54a3334b1879",
    "resource": {
      "resourceType": "Patient",
      "id": "be63024c-aceb-4021-945f-54a3334b1879",
      "language": "en",
      "identifier": [ {
        "extension": [ {
          "url": "https://fhir.hl7.org.uk/STU3/StructureDefinition/Extension-CareConnect-NHSNumberVerificationStatus-1",
          "valueCodeableConcept": {
            "coding": [ {
              "system": "https://fhir.hl7.org.uk/STU3/StructureDefinition/Extension-CareConnect-NHSNumberVerificationStatus-1",
              "code": "02"
            } ]
          }
        } ],
        "system": "https://fhir.nhs.uk/Id/nhs-number",
        "value": "993254128"
      } ],
      "active": true,
      "name": [ {
        "use": "official",
        "family": "Joe",
        "given": [ "Blogg" ],
        "prefix": [ "Mr" ]
      } ],
      "telecom": [ {
        "system": "phone",
        "value": "tel:01634775667",
        "use": "home"
      }, {
        "system": "phone",
        "value": "tel:01634451628",
        "use": "home"
      }, {
        "system": "email",
        "value": "mailto:Joe.Blogg@emailfree.co.uk",
        "use": "home"
      } ],
      "gender": "male",
      "birthDate": "1989-01-01",
      "address": [ {
        "use": "home",
        "line": [ "17, County Avenue", "Woodtown" ],
        "city": "Medway",
        "postalCode": "ME5 FS3"
      } ],
      "generalPractitioner": [ {
        "reference": "urn:uuid:7a9192f0-a1d5-4683-ba7e-e64f1d93ff71"
      } ]
    }
  }, {
    "fullUrl": "urn:uuid:7a9192f0-a1d5-4683-ba7e-e64f1d93ff71",
    "resource": {
      "resourceType": "Organization",
      "id": "7a9192f0-a1d5-4683-ba7e-e64f1d93ff71",
      "identifier": [ {
        "value": "V396F"
      } ],
      "type": [ {
        "text": "GP Practice"
      } ],
      "name": "Medway Medical Practice",
      "telecom": [ {
        "system": "phone",
        "value": "tel:01634111222",
        "use": "work"
      } ],
      "address": [ {
        "use": "work",
        "line": [ "Springer Street" ],
        "city": "Medway",
        "postalCode": "ME5 5TY"
      } ]
    }
  }, {
    "fullUrl": "urn:uuid:ecf121e6-cf8b-4537-b9d2-35d65e7fd3bf",
    "resource": {
      "resourceType": "HealthcareService",
      "id": "ecf121e6-cf8b-4537-b9d2-35d65e7fd3bf",
      "active": true,
      "providedBy": {
        "reference": "urn:uuid:999f2832-f399-41f6-ba9a-e1e3c50d44ba"
      },
      "location": [ {
        "reference": "urn:uuid:05b32e72-fb8a-41f1-b61a-d7dfe76caaa4"
      } ],
      "name": "Thames Medical Practice",
      "telecom": [ {
        "system": "phone",
        "value": "tel:0123476895",
        "use": "work"
      } ]
    }
  }, {
    "fullUrl": "urn:uuid:05b32e72-fb8a-41f1-b61a-d7dfe76caaa4",
    "resource": {
      "resourceType": "Location",
      "id": "05b32e72-fb8a-41f1-b61a-d7dfe76caaa4",
      "telecom": [ {
        "system": "phone",
        "value": "tel:0123476895",
        "use": "work"
      } ],
      "address": {
        "use": "work",
        "line": [ "Thames Medical Practice", "Hill Street Branch Surgery", "Medway", "Essex" ],
        "postalCode": "ME4 5TT"
      },
      "managingOrganization": {
        "reference": "urn:uuid:999f2832-f399-41f6-ba9a-e1e3c50d44ba"
      }
    }
  }, {
    "fullUrl": "urn:uuid:999f2832-f399-41f6-ba9a-e1e3c50d44ba",
    "resource": {
      "resourceType": "Organization",
      "id": "999f2832-f399-41f6-ba9a-e1e3c50d44ba",
      "identifier": [ {
        "value": "PRA123"
      } ],
      "type": [ {
        "coding": [ {
          "code": "PRCP",
          "display": "Thames Medical Practice"
        } ]
      } ],
      "name": "Thames Medical Practice"
    }
  }, {
    "fullUrl": "urn:uuid:6acf2dff-4d09-424f-94ec-629537343722",
    "resource": {
      "resourceType": "HealthcareService",
      "id": "6acf2dff-4d09-424f-94ec-629537343722",
      "active": true,
      "providedBy": {
        "reference": "urn:uuid:7e12cde4-01b4-4717-88ff-7a02910fd490"
      },
      "location": [ {
        "reference": "urn:uuid:0dbeccb6-8cb3-4928-a58c-2d4b9cd04ac1"
      } ],
      "name": "Medway Kent Out of Hours Clinic"
    }
  }, {
    "fullUrl": "urn:uuid:0dbeccb6-8cb3-4928-a58c-2d4b9cd04ac1",
    "resource": {
      "resourceType": "Location",
      "id": "0dbeccb6-8cb3-4928-a58c-2d4b9cd04ac1",
      "managingOrganization": {
        "reference": "urn:uuid:7e12cde4-01b4-4717-88ff-7a02910fd490"
      }
    }
  }, {
    "fullUrl": "urn:uuid:7e12cde4-01b4-4717-88ff-7a02910fd490",
    "resource": {
      "resourceType": "Organization",
      "id": "7e12cde4-01b4-4717-88ff-7a02910fd490",
      "identifier": [ {
        "value": "EM396"
      } ],
      "type": [ {
        "coding": [ {
          "code": "PRCP",
          "display": "Medway Kent Out of Hours Clinic"
        } ]
      } ],
      "name": "Medway Kent Out of Hours Clinic"
    }
  }, {
    "fullUrl": "urn:uuid:85595f28-fc7c-4c71-a4c7-c2d7daeb2f05",
    "resource": {
      "resourceType": "ReferralRequest",
      "id": "85595f28-fc7c-4c71-a4c7-c2d7daeb2f05",
      "status": "active",
      "intent": "plan",
      "priority": "routine",
      "subject": {
        "reference": "urn:uuid:be63024c-aceb-4021-945f-54a3334b1879"
      },
      "context": {
        "reference": "urn:uuid:2a5ed6fa-f040-43ca-8835-bab61097e693"
      },
      "occurrencePeriod": {
        "start": "2021-10-11T06:41:43+00:00",
        "end": "2021-10-11T07:41:43+00:00"
      },
      "authoredOn": "2019-01-01T20:00:00+00:00",
      "requester": {
        "agent": {
          "reference": "urn:uuid:de76ed96-8172-46f5-9976-4b23d7bb274e"
        },
        "onBehalfOf": {
          "reference": "urn:uuid:2c2350c0-6168-4ba3-a784-03ce09df983c"
        }
      },
      "recipient": [ {
        "reference": "urn:uuid:416874f1-e7a5-4c33-9c22-2fa2403d1853"
      }, {
        "reference": "urn:uuid:ecf121e6-cf8b-4537-b9d2-35d65e7fd3bf"
      }, {
        "reference": "urn:uuid:6acf2dff-4d09-424f-94ec-629537343722"
      } ],
      "reasonReference": [ {
        "reference": "urn:uuid:33455b86-564c-41f6-b253-d2dd02d3dc86"
      } ],
      "supportingInfo": [ {
        "reference": "urn:uuid:f0ebfc75-954f-4115-8ca6-86c2c285d14b"
      } ]
    }
  }, {
    "fullUrl": "urn:uuid:f0ebfc75-954f-4115-8ca6-86c2c285d14b",
    "resource": {
      "resourceType": "ProcedureRequest",
      "id": "f0ebfc75-954f-4115-8ca6-86c2c285d14b",
      "status": "active",
      "intent": "plan",
      "priority": "routine",
      "doNotPerform": false,
      "code": {
        "coding": [ {
          "system": "2.16.840.1.113883.2.1.3.2.4.17.325",
          "code": "Dx001",
          "display": "Passed onto clinical hub"
        } ]
      },
      "subject": {
        "reference": "urn:uuid:be63024c-aceb-4021-945f-54a3334b1879"
      },
      "occurrencePeriod": {
        "start": "2021-10-11T06:41:43+00:00",
        "end": "2021-10-11T07:41:43+00:00"
      },
      "reasonReference": [ {
        "reference": "urn:uuid:33455b86-564c-41f6-b253-d2dd02d3dc86"
      } ]
    }
  }, {
    "fullUrl": "urn:uuid:416874f1-e7a5-4c33-9c22-2fa2403d1853",
    "resource": {
      "resourceType": "Practitioner",
      "id": "416874f1-e7a5-4c33-9c22-2fa2403d1853",
      "active": true,
      "telecom": [ {
        "system": "phone",
        "value": "tel:0123456789"
      } ],
      "address": [ {
        "type": "physical",
        "line": [ "Church Street Walk in Centre", "4 Church Street", "Medway" ],
        "postalCode": "ME8 7TT"
      } ]
    }
  }, {
    "fullUrl": "urn:uuid:670fb5e6-631e-40fc-9126-fd20eae500ff",
    "resource": {
      "resourceType": "Composition",
      "id": "670fb5e6-631e-40fc-9126-fd20eae500ff",
      "identifier": {
        "use": "usual",
        "value": "411910CF-1A76-4330-98FE-C345DDEE5553"
      },
      "status": "final",
      "type": {
        "coding": [ {
          "system": "http://snomed.info/sct",
          "code": "371531000",
          "display": "Report of clinical encounter (record artifact)"
        } ]
      },
      "subject": {
        "reference": "urn:uuid:be63024c-aceb-4021-945f-54a3334b1879"
      },
      "encounter": {
        "reference": "urn:uuid:2a5ed6fa-f040-43ca-8835-bab61097e693"
      },
      "date": "2021-10-11T06:41:43+00:00",
      "author": [ {
        "reference": "urn:uuid:e315603a-f2e9-45ed-a543-ee17d5534548"
      } ],
      "title": "111 Report",
      "confidentiality": "V",
      "section": [ {
        "section": [ {
          "title": "Permission to View",
          "text": {
            "status": "generated",
            "div": "<div xmlns=\"http://www.w3.org/1999/xhtml\">&lt;table&gt;\n                                                        &lt;tbody&gt;\n                                                            &lt;tr&gt;\n                                                                &lt;th&gt;Permission to view outcome&lt;/th&gt;\n                                                                &lt;td&gt;Permission to view obtained&lt;/td&gt;\n                                                            &lt;/tr&gt;\n                                                            &lt;tr&gt;\n                                                                &lt;th&gt;Date obtained&lt;/th&gt;\n                                                                &lt;td&gt;01-Jan-2017, 20:00&lt;/td&gt;\n                                                            &lt;/tr&gt;\n                                                            &lt;tr&gt;\n                                                                &lt;th&gt;Date expires&lt;/th&gt;\n                                                                &lt;td&gt;15-Jan-2017, 20:00&lt;/td&gt;\n                                                            &lt;/tr&gt;\n                                                        &lt;/tbody&gt;\n                                                    &lt;/table&gt;</div>"
          }
        }, {
          "title": "Primary Reason for Call",
          "text": {
            "status": "generated",
            "div": "<div xmlns=\"http://www.w3.org/1999/xhtml\">&lt;content&gt;Patient feels dizzy.&lt;/content&gt;</div>"
          },
          "section": [ {
            "title": "SUBSUB2",
            "text": {
              "status": "generated",
              "div": "<div xmlns=\"http://www.w3.org/1999/xhtml\">&lt;content&gt;SUBSUB2&lt;/content&gt;</div>"
            },
            "section": [ {
              "title": "SUBSUB3",
              "text": {
                "status": "generated",
                "div": "<div xmlns=\"http://www.w3.org/1999/xhtml\">&lt;content&gt;SUBSUB3&lt;/content&gt;</div>"
              }
            } ]
          } ]
        }, {
          "title": "Clinical Summary",
          "text": {
            "status": "generated",
            "div": "<div xmlns=\"http://www.w3.org/1999/xhtml\">&lt;content&gt;\n                                                        Patient fels nausea and dizzy after waking up. Lasted 30\n                                                        minutes.\n                                                    &lt;/content&gt;</div>"
          }
        }, {
          "title": "Additional Patient Notes",
          "text": {
            "status": "generated",
            "div": "<div xmlns=\"http://www.w3.org/1999/xhtml\">Additional Patient Notes\n                                                    &lt;br/&gt;\n                                                    Additional Patient Notes abc 01-Feb-2017, 12:00\n                                                    &lt;br/&gt;</div>"
          },
          "section": [ {
            "text": {
              "status": "generated",
              "div": "<div xmlns=\"http://www.w3.org/1999/xhtml\">These are more notes, nested under the top one.</div>"
            }
          } ]
        }, {
          "title": "Disposition Details",
          "text": {
            "status": "generated",
            "div": "<div xmlns=\"http://www.w3.org/1999/xhtml\">&lt;content&gt;Lie down.&lt;/content&gt;</div>"
          }
        }, {
          "title": "Information and advice given",
          "text": {
            "status": "generated",
            "div": "<div xmlns=\"http://www.w3.org/1999/xhtml\">&lt;content&gt;Do not perform any strenuous activities.&lt;/content&gt;</div>"
          }
        }, {
          "title": "Recorded Allergies",
          "text": {
            "status": "generated",
            "div": "<div xmlns=\"http://www.w3.org/1999/xhtml\">&lt;content&gt;No known allergies or adverse reaction.&lt;/content&gt;</div>"
          }
        }, {
          "title": "Triage Report",
          "text": {
            "status": "generated",
            "div": "<div xmlns=\"http://www.w3.org/1999/xhtml\">&lt;content&gt;An injury or other health problem was described.\n                                                        &lt;br/&gt;The individual was described as breathing and conscious.\n                                                        &lt;br/&gt;Loss of at least a mugful of blood in the last 30 minutes\n                                                        was not described.\n                                                        &lt;br/&gt;An illness or other health problem was described. -\n                                                        Dizziness\n                                                        &lt;br/&gt;Fighting for breath was not described.\n                                                        &lt;br/&gt;A heart attack, chest/upper back pain, recent probable\n                                                        stroke, recent fit/seizure or suicide attempt was not described\n                                                        as the main call reason.\n                                                        &lt;br/&gt;Dizziness and nausea was described.\n                                                        &lt;br/&gt;\n                                                    &lt;/content&gt;</div>"
          }
        }, {
          "title": "Prescribed Items",
          "text": {
            "status": "generated",
            "div": "<div xmlns=\"http://www.w3.org/1999/xhtml\">&lt;content&gt;\n                                                        Medications\n                                                    &lt;/content&gt;</div>"
          }
        }, {
          "title": "Appointment Reference",
          "text": {
            "status": "generated",
            "div": "<div xmlns=\"http://www.w3.org/1999/xhtml\">&lt;content&gt;\n                                                        Date/Time: 01 June 2017 14:00\n                                                        Location: CENTRAL LONDON COMMUNITY HEALTHCARE NHS TRUST\n                                                        Psychiatric Community Care Service\n                                                    &lt;/content&gt;</div>"
          }
        } ]
      }, {
        "title": "CarePlan",
        "entry": [ {
          "reference": "urn:uuid:57b83baa-5f9c-4501-8eb3-0132c2b509fa"
        } ]
      }, {
        "title": "ReferralRequest",
        "entry": [ {
          "reference": "urn:uuid:85595f28-fc7c-4c71-a4c7-c2d7daeb2f05"
        } ]
      }, {
        "title": "QuestionnaireResponse",
        "entry": [ {
          "reference": "urn:uuid:4333e0f0-1555-4afe-a982-e3b4916343a4"
        } ]
      }, {
        "title": "QuestionnaireResponse",
        "entry": [ {
          "reference": "urn:uuid:f4b8feb6-10a4-4e2e-8fd9-2f0b76a12f10"
        } ]
      }, {
        "title": "QuestionnaireResponse",
        "entry": [ {
          "reference": "urn:uuid:78d89b8f-ef82-4d41-a78f-ee7cd11bef1a"
        } ]
      }, {
        "title": "QuestionnaireResponse",
        "entry": [ {
          "reference": "urn:uuid:98c03fc6-3c7f-4911-a445-ee0769cd4ed7"
        } ]
      }, {
        "title": "QuestionnaireResponse",
        "entry": [ {
          "reference": "urn:uuid:94244b5f-0d43-440a-ac3b-a2a1907a8a92"
        } ]
      }, {
        "title": "QuestionnaireResponse",
        "entry": [ {
          "reference": "urn:uuid:d8e942f7-b5bd-47a1-bacd-d484bb8bbede"
        } ]
      }, {
        "title": "QuestionnaireResponse",
        "entry": [ {
          "reference": "urn:uuid:def5844c-76a8-462f-9bd1-956ea3d5a4b8"
        } ]
      }, {
        "title": "QuestionnaireResponse",
        "entry": [ {
          "reference": "urn:uuid:9a0e4bc5-d25a-4827-9320-00c0a43f1840"
        } ]
      }, {
        "title": "QuestionnaireResponse",
        "entry": [ {
          "reference": "urn:uuid:279dcd55-4e97-44d4-bb8a-0c8b83612cd5"
        } ]
      }, {
        "title": "QuestionnaireResponse",
        "entry": [ {
          "reference": "urn:uuid:90db6d0f-c9e2-4cc7-af51-d9210ec6e280"
        } ]
      }, {
        "title": "QuestionnaireResponse",
        "entry": [ {
          "reference": "urn:uuid:51fe502b-58ac-496d-8c89-d0edf8d95123"
        } ]
      }, {
        "title": "QuestionnaireResponse",
        "entry": [ {
          "reference": "urn:uuid:34b8fd0c-a39a-4e9c-bc09-ad8c2930162f"
        } ]
      }, {
        "title": "QuestionnaireResponse",
        "entry": [ {
          "reference": "urn:uuid:afbc96ea-26bf-43f8-9767-70de7aaf17c2"
        } ]
      }, {
        "title": "QuestionnaireResponse",
        "entry": [ {
          "reference": "urn:uuid:716699a2-29cc-4630-aa52-a262cd295674"
        } ]
      }, {
        "title": "QuestionnaireResponse",
        "entry": [ {
          "reference": "urn:uuid:34b414f9-5914-4389-bbce-b3ce687cc488"
        } ]
      }, {
        "title": "QuestionnaireResponse",
        "entry": [ {
          "reference": "urn:uuid:2e6798d8-1b6e-4d45-b68b-8be91f2918f5"
        } ]
      }, {
        "title": "QuestionnaireResponse",
        "entry": [ {
          "reference": "urn:uuid:52897cd7-78f7-4f4f-801b-97a9c192b90b"
        } ]
      }, {
        "title": "QuestionnaireResponse",
        "entry": [ {
          "reference": "urn:uuid:b55f1193-ed2d-4be9-b847-8619bdee8db7"
        } ]
      }, {
        "title": "QuestionnaireResponse",
        "entry": [ {
          "reference": "urn:uuid:636dc409-3485-4143-96c9-90ffc8d14b9a"
        } ]
      }, {
        "title": "QuestionnaireResponse",
        "entry": [ {
          "reference": "urn:uuid:95812048-6c23-4467-8721-c0b67a6fb74b"
        } ]
      }, {
        "title": "QuestionnaireResponse",
        "entry": [ {
          "reference": "urn:uuid:6d6054cf-575a-4fef-bde9-aeae1c65907b"
        } ]
      }, {
        "title": "QuestionnaireResponse",
        "entry": [ {
          "reference": "urn:uuid:3ca1cee1-f10a-4938-b1a6-a960cf498e99"
        } ]
      }, {
        "title": "QuestionnaireResponse",
        "entry": [ {
          "reference": "urn:uuid:bac135b1-fbac-4204-a9da-09b8dcad583c"
        } ]
      }, {
        "title": "QuestionnaireResponse",
        "entry": [ {
          "reference": "urn:uuid:3ab68791-5384-4e1d-9758-d3b1c71fe0b7"
        } ]
      } ]
    }
  }, {
    "fullUrl": "urn:uuid:57b83baa-5f9c-4501-8eb3-0132c2b509fa",
    "resource": {
      "resourceType": "CarePlan",
      "id": "57b83baa-5f9c-4501-8eb3-0132c2b509fa",
      "status": "completed",
      "intent": "plan",
      "title": "Information and advice given",
      "description": "Do not perform any strenuous activities.",
      "subject": {
        "reference": "urn:uuid:be63024c-aceb-4021-945f-54a3334b1879"
      },
      "context": {
        "reference": "urn:uuid:2a5ed6fa-f040-43ca-8835-bab61097e693"
      },
      "period": {
        "start": "2017-01-01T20:00:00+00:00"
      },
      "author": [ {
        "reference": "urn:uuid:93c7c154-b44d-41fa-ab3d-4d4c3a722856"
      } ],
      "addresses": [ {
        "reference": "urn:uuid:33455b86-564c-41f6-b253-d2dd02d3dc86"
      } ]
    }
  }, {
    "fullUrl": "urn:uuid:86bf0680-0c4f-4ab2-b93e-bdde7bba89a6",
    "resource": {
      "resourceType": "Consent",
      "id": "86bf0680-0c4f-4ab2-b93e-bdde7bba89a6",
      "text": {
        "status": "generated",
        "div": "<div xmlns=\"http://www.w3.org/1999/xhtml\">\n                                                    <table>\n                                                        <tbody>\n                                                            <tr>\n                                                                <th>Permission to view outcome</th>\n                                                                <td>Permission to view obtained</td>\n                                                            </tr>\n                                                            <tr>\n                                                                <th>Date obtained</th>\n                                                                <td>01-Jan-2017, 20:00</td>\n                                                            </tr>\n                                                            <tr>\n                                                                <th>Date expires</th>\n                                                                <td>15-Jan-2017, 20:00</td>\n                                                            </tr>\n                                                        </tbody>\n                                                    </table>\n                                                </div>"
      },
      "identifier": {
        "use": "usual",
        "value": "411910CF-1A76-4330-98FE-C345DDEE5553"
      },
      "status": "active",
      "patient": {
        "reference": "urn:uuid:be63024c-aceb-4021-945f-54a3334b1879"
      },
      "period": {
        "start": "2017-01-01T20:00:00+00:00"
      },
      "consentingParty": [ {
        "reference": "urn:uuid:be63024c-aceb-4021-945f-54a3334b1879"
      } ],
      "action": [ {
        "coding": [ {
          "system": "http://snomed.info/sct",
          "code": "425691002",
          "display": "Consent given for electronic record sharing"
        } ],
        "text": "Consent given for electronic record sharing"
      } ],
      "organization": [ {
        "reference": "urn:uuid:2c2350c0-6168-4ba3-a784-03ce09df983c"
      } ],
      "sourceIdentifier": {
        "value": "41D9F90F-6DB7-4939-BEF5-F8D75D79ECDD"
      },
      "policyRule": "http://hl7.org/fhir/ConsentPolicy/opt-out",
      "dataPeriod": {
        "start": "2011-05-19T20:00:00+00:00",
        "end": "2011-05-26T20:00:00+00:00"
      },
      "data": [ {
        "meaning": "related",
        "reference": {
          "reference": "urn:uuid:2a5ed6fa-f040-43ca-8835-bab61097e693"
        }
      } ]
    }
  }, {
    "fullUrl": "urn:uuid:33455b86-564c-41f6-b253-d2dd02d3dc86",
    "resource": {
      "resourceType": "Condition",
      "id": "33455b86-564c-41f6-b253-d2dd02d3dc86",
      "clinicalStatus": "active",
      "verificationStatus": "unknown",
      "code": {
        "coding": [ {
          "system": "22298006",
          "code": "2.16.840.1.113883.2.1.3.2.4.15",
          "display": "Myocardial infarction"
        } ]
      },
      "subject": {
        "reference": "urn:uuid:be63024c-aceb-4021-945f-54a3334b1879"
      },
      "context": {
        "reference": "urn:uuid:2a5ed6fa-f040-43ca-8835-bab61097e693"
      },
      "assertedDate": "2017-06-01T14:00:00+00:00",
      "evidence": [ {
        "detail": [ {
          "reference": "urn:uuid:4333e0f0-1555-4afe-a982-e3b4916343a4"
        } ]
      }, {
        "detail": [ {
          "reference": "urn:uuid:f4b8feb6-10a4-4e2e-8fd9-2f0b76a12f10"
        } ]
      }, {
        "detail": [ {
          "reference": "urn:uuid:78d89b8f-ef82-4d41-a78f-ee7cd11bef1a"
        } ]
      }, {
        "detail": [ {
          "reference": "urn:uuid:98c03fc6-3c7f-4911-a445-ee0769cd4ed7"
        } ]
      }, {
        "detail": [ {
          "reference": "urn:uuid:94244b5f-0d43-440a-ac3b-a2a1907a8a92"
        } ]
      }, {
        "detail": [ {
          "reference": "urn:uuid:d8e942f7-b5bd-47a1-bacd-d484bb8bbede"
        } ]
      }, {
        "detail": [ {
          "reference": "urn:uuid:def5844c-76a8-462f-9bd1-956ea3d5a4b8"
        } ]
      }, {
        "detail": [ {
          "reference": "urn:uuid:9a0e4bc5-d25a-4827-9320-00c0a43f1840"
        } ]
      }, {
        "detail": [ {
          "reference": "urn:uuid:279dcd55-4e97-44d4-bb8a-0c8b83612cd5"
        } ]
      }, {
        "detail": [ {
          "reference": "urn:uuid:90db6d0f-c9e2-4cc7-af51-d9210ec6e280"
        } ]
      }, {
        "detail": [ {
          "reference": "urn:uuid:51fe502b-58ac-496d-8c89-d0edf8d95123"
        } ]
      }, {
        "detail": [ {
          "reference": "urn:uuid:34b8fd0c-a39a-4e9c-bc09-ad8c2930162f"
        } ]
      }, {
        "detail": [ {
          "reference": "urn:uuid:afbc96ea-26bf-43f8-9767-70de7aaf17c2"
        } ]
      }, {
        "detail": [ {
          "reference": "urn:uuid:716699a2-29cc-4630-aa52-a262cd295674"
        } ]
      }, {
        "detail": [ {
          "reference": "urn:uuid:34b414f9-5914-4389-bbce-b3ce687cc488"
        } ]
      }, {
        "detail": [ {
          "reference": "urn:uuid:2e6798d8-1b6e-4d45-b68b-8be91f2918f5"
        } ]
      }, {
        "detail": [ {
          "reference": "urn:uuid:52897cd7-78f7-4f4f-801b-97a9c192b90b"
        } ]
      }, {
        "detail": [ {
          "reference": "urn:uuid:b55f1193-ed2d-4be9-b847-8619bdee8db7"
        } ]
      }, {
        "detail": [ {
          "reference": "urn:uuid:636dc409-3485-4143-96c9-90ffc8d14b9a"
        } ]
      }, {
        "detail": [ {
          "reference": "urn:uuid:95812048-6c23-4467-8721-c0b67a6fb74b"
        } ]
      }, {
        "detail": [ {
          "reference": "urn:uuid:6d6054cf-575a-4fef-bde9-aeae1c65907b"
        } ]
      }, {
        "detail": [ {
          "reference": "urn:uuid:3ca1cee1-f10a-4938-b1a6-a960cf498e99"
        } ]
      }, {
        "detail": [ {
          "reference": "urn:uuid:bac135b1-fbac-4204-a9da-09b8dcad583c"
        } ]
      }, {
        "detail": [ {
          "reference": "urn:uuid:3ab68791-5384-4e1d-9758-d3b1c71fe0b7"
        } ]
      } ]
    }
  }, {
    "fullUrl": "urn:uuid:4333e0f0-1555-4afe-a982-e3b4916343a4",
    "resource": {
      "resourceType": "QuestionnaireResponse",
      "id": "4333e0f0-1555-4afe-a982-e3b4916343a4",
      "identifier": {
        "value": "8067b9b2-e604-4414-b56f-8e3cc4de4b1b"
      },
      "questionnaire": {
        "reference": "urn:uuid:365b7cd4-5f3a-406c-b75c-239e1649749e"
      },
      "status": "completed",
      "subject": {
        "reference": "urn:uuid:be63024c-aceb-4021-945f-54a3334b1879"
      },
      "context": {
        "reference": "urn:uuid:2a5ed6fa-f040-43ca-8835-bab61097e693"
      },
      "authored": "2011-02-17T17:31:14+00:00",
      "item": [ {
        "linkId": "N/A"
      } ]
    }
  }, {
    "fullUrl": "urn:uuid:365b7cd4-5f3a-406c-b75c-239e1649749e",
    "resource": {
      "resourceType": "Questionnaire",
      "id": "365b7cd4-5f3a-406c-b75c-239e1649749e",
      "identifier": [ {
        "value": "8067b9b2-e604-4414-b56f-8e3cc4de4b1b"
      } ],
      "version": "2011-02-17T17:31:14.313Z",
      "status": "active",
      "experimental": false,
      "date": "2011-02-17T17:31:14+00:00",
      "publisher": "User ID: '3137' User name: 'redacted' User skill set: 'T1'",
      "lastReviewDate": "2011-02-17",
      "jurisdiction": [ {
        "text": "England"
      } ],
      "contact": [ {
        "telecom": [ {
          "system": "phone",
          "value": "redacted"
        } ]
      } ],
      "subjectType": [ "Patient" ],
      "item": [ {
        "linkId": "8067b9b2-e604-4414-b56f-8e3cc4de4b1b",
        "prefix": "0",
        "type": "choice",
        "required": true,
        "repeats": false,
        "option": [ {
          "valueString": ", Selected: false"
        } ]
      } ]
    }
  }, {
    "fullUrl": "urn:uuid:f4b8feb6-10a4-4e2e-8fd9-2f0b76a12f10",
    "resource": {
      "resourceType": "QuestionnaireResponse",
      "id": "f4b8feb6-10a4-4e2e-8fd9-2f0b76a12f10",
      "identifier": {
        "value": "8067b9b2-e604-4414-b56f-8e3cc4de4b1b"
      },
      "questionnaire": {
        "reference": "urn:uuid:9e4def2e-dd9a-445f-9615-f07fa4e597e8"
      },
      "status": "completed",
      "subject": {
        "reference": "urn:uuid:be63024c-aceb-4021-945f-54a3334b1879"
      },
      "context": {
        "reference": "urn:uuid:2a5ed6fa-f040-43ca-8835-bab61097e693"
      },
      "authored": "2011-02-17T17:31:14+00:00",
      "item": [ {
        "linkId": "N/A"
      } ]
    }
  }, {
    "fullUrl": "urn:uuid:9e4def2e-dd9a-445f-9615-f07fa4e597e8",
    "resource": {
      "resourceType": "Questionnaire",
      "id": "9e4def2e-dd9a-445f-9615-f07fa4e597e8",
      "identifier": [ {
        "value": "8067b9b2-e604-4414-b56f-8e3cc4de4b1b"
      } ],
      "version": "2011-02-17T17:31:14.313Z",
      "status": "active",
      "experimental": false,
      "date": "2011-02-17T17:31:14+00:00",
      "publisher": "User ID: '3137' User name: 'redacted' User skill set: 'T1'",
      "lastReviewDate": "2011-02-17",
      "jurisdiction": [ {
        "text": "England"
      } ],
      "contact": [ {
        "telecom": [ {
          "system": "phone",
          "value": "redacted"
        } ]
      } ],
      "subjectType": [ "Patient" ],
      "item": [ {
        "linkId": "8067b9b2-e604-4414-b56f-8e3cc4de4b1b",
        "prefix": "0",
        "type": "choice",
        "required": true,
        "repeats": false,
        "option": [ {
          "valueString": ", Selected: false"
        } ]
      } ]
    }
  }, {
    "fullUrl": "urn:uuid:78d89b8f-ef82-4d41-a78f-ee7cd11bef1a",
    "resource": {
      "resourceType": "QuestionnaireResponse",
      "id": "78d89b8f-ef82-4d41-a78f-ee7cd11bef1a",
      "identifier": {
        "value": "8067b9b2-e604-4414-b56f-8e3cc4de4b1b"
      },
      "questionnaire": {
        "reference": "urn:uuid:4c9e1ae2-6242-4389-b7e8-526ed20b6b1e"
      },
      "status": "completed",
      "subject": {
        "reference": "urn:uuid:be63024c-aceb-4021-945f-54a3334b1879"
      },
      "context": {
        "reference": "urn:uuid:2a5ed6fa-f040-43ca-8835-bab61097e693"
      },
      "authored": "2011-02-17T17:31:14+00:00",
      "item": [ {
        "linkId": "Tx220109",
        "text": "What is the reason for the call?",
        "answer": [ {
          "valueString": "an injury or other health problem"
        } ]
      } ]
    }
  }, {
    "fullUrl": "urn:uuid:4c9e1ae2-6242-4389-b7e8-526ed20b6b1e",
    "resource": {
      "resourceType": "Questionnaire",
      "id": "4c9e1ae2-6242-4389-b7e8-526ed20b6b1e",
      "identifier": [ {
        "value": "8067b9b2-e604-4414-b56f-8e3cc4de4b1b"
      } ],
      "version": "2011-02-17T17:31:14.313Z",
      "status": "active",
      "experimental": false,
      "date": "2011-02-17T17:31:14+00:00",
      "publisher": "User ID: '3137' User name: 'redacted' User skill set: 'T1'",
      "lastReviewDate": "2011-02-17",
      "jurisdiction": [ {
        "text": "England"
      } ],
      "contact": [ {
        "telecom": [ {
          "system": "phone",
          "value": "redacted"
        } ]
      } ],
      "subjectType": [ "Patient" ],
      "item": [ {
        "linkId": "8067b9b2-e604-4414-b56f-8e3cc4de4b1b",
        "prefix": "5",
        "text": "What is the reason for the call?",
        "type": "choice",
        "required": true,
        "repeats": false,
        "option": [ {
          "valueString": "an injury or other health problem, Selected: true"
        }, {
          "valueString": "a need to access another healthcare provider, Selected: false"
        }, {
          "valueString": "a healthcare professional requesting contact with another clinician, Selected: false"
        }, {
          "valueString": "a report of results or tests, Selected: false"
        }, {
          "valueString": "more, Selected: false"
        } ]
      } ]
    }
  }, {
    "fullUrl": "urn:uuid:98c03fc6-3c7f-4911-a445-ee0769cd4ed7",
    "resource": {
      "resourceType": "QuestionnaireResponse",
      "id": "98c03fc6-3c7f-4911-a445-ee0769cd4ed7",
      "identifier": {
        "value": "8067b9b2-e604-4414-b56f-8e3cc4de4b1b"
      },
      "questionnaire": {
        "reference": "urn:uuid:45730d61-0bdb-415e-a7a4-4ab92c9489fa"
      },
      "status": "completed",
      "subject": {
        "reference": "urn:uuid:be63024c-aceb-4021-945f-54a3334b1879"
      },
      "context": {
        "reference": "urn:uuid:2a5ed6fa-f040-43ca-8835-bab61097e693"
      },
      "authored": "2011-02-17T17:31:14+00:00",
      "item": [ {
        "linkId": "Tx140118",
        "text": "Has the baby just been born?",
        "answer": [ {
          "valueString": "no"
        } ]
      } ]
    }
  }, {
    "fullUrl": "urn:uuid:45730d61-0bdb-415e-a7a4-4ab92c9489fa",
    "resource": {
      "resourceType": "Questionnaire",
      "id": "45730d61-0bdb-415e-a7a4-4ab92c9489fa",
      "identifier": [ {
        "value": "8067b9b2-e604-4414-b56f-8e3cc4de4b1b"
      } ],
      "version": "2011-02-17T17:31:14.313Z",
      "status": "active",
      "experimental": false,
      "date": "2011-02-17T17:31:14+00:00",
      "publisher": "User ID: '3137' User name: 'redacted' User skill set: 'T1'",
      "lastReviewDate": "2011-02-17",
      "jurisdiction": [ {
        "text": "England"
      } ],
      "contact": [ {
        "telecom": [ {
          "system": "phone",
          "value": "redacted"
        } ]
      } ],
      "subjectType": [ "Patient" ],
      "item": [ {
        "linkId": "8067b9b2-e604-4414-b56f-8e3cc4de4b1b",
        "prefix": "35",
        "text": "Has the baby just been born?",
        "type": "choice",
        "required": true,
        "repeats": false,
        "option": [ {
          "valueString": "yes, Selected: false"
        }, {
          "valueString": "not sure, Selected: false"
        }, {
          "valueString": "no, Selected: true"
        } ]
      } ]
    }
  }, {
    "fullUrl": "urn:uuid:94244b5f-0d43-440a-ac3b-a2a1907a8a92",
    "resource": {
      "resourceType": "QuestionnaireResponse",
      "id": "94244b5f-0d43-440a-ac3b-a2a1907a8a92",
      "identifier": {
        "value": "8067b9b2-e604-4414-b56f-8e3cc4de4b1b"
      },
      "questionnaire": {
        "reference": "urn:uuid:1ee0773d-60cf-4e11-83af-acbfcf75609b"
      },
      "status": "completed",
      "subject": {
        "reference": "urn:uuid:be63024c-aceb-4021-945f-54a3334b1879"
      },
      "context": {
        "reference": "urn:uuid:2a5ed6fa-f040-43ca-8835-bab61097e693"
      },
      "authored": "2011-02-17T17:31:14+00:00",
      "item": [ {
        "linkId": "Tx220110",
        "text": "Is he breathing and conscious?",
        "answer": [ {
          "valueString": "breathing AND conscious"
        } ]
      } ]
    }
  }, {
    "fullUrl": "urn:uuid:1ee0773d-60cf-4e11-83af-acbfcf75609b",
    "resource": {
      "resourceType": "Questionnaire",
      "id": "1ee0773d-60cf-4e11-83af-acbfcf75609b",
      "identifier": [ {
        "value": "8067b9b2-e604-4414-b56f-8e3cc4de4b1b"
      } ],
      "version": "2011-02-17T17:31:14.313Z",
      "status": "active",
      "experimental": false,
      "date": "2011-02-17T17:31:14+00:00",
      "publisher": "User ID: '3137' User name: 'redacted' User skill set: 'T1'",
      "lastReviewDate": "2011-02-17",
      "jurisdiction": [ {
        "text": "England"
      } ],
      "contact": [ {
        "telecom": [ {
          "system": "phone",
          "value": "redacted"
        } ]
      } ],
      "subjectType": [ "Patient" ],
      "item": [ {
        "linkId": "8067b9b2-e604-4414-b56f-8e3cc4de4b1b",
        "prefix": "40",
        "text": "Is he breathing and conscious?",
        "type": "choice",
        "required": true,
        "repeats": false,
        "option": [ {
          "valueString": "breathing AND conscious, Selected: true"
        }, {
          "valueString": "breathing but NOT conscious (includes current fitting), Selected: false"
        }, {
          "valueString": "NOT breathing, Selected: false"
        }, {
          "valueString": "choking now, Selected: false"
        } ]
      } ]
    }
  }, {
    "fullUrl": "urn:uuid:d8e942f7-b5bd-47a1-bacd-d484bb8bbede",
    "resource": {
      "resourceType": "QuestionnaireResponse",
      "id": "d8e942f7-b5bd-47a1-bacd-d484bb8bbede",
      "identifier": {
        "value": "8067b9b2-e604-4414-b56f-8e3cc4de4b1b"
      },
      "questionnaire": {
        "reference": "urn:uuid:1273a871-b5a7-4e61-8120-6bc313c7dabe"
      },
      "status": "completed",
      "subject": {
        "reference": "urn:uuid:be63024c-aceb-4021-945f-54a3334b1879"
      },
      "context": {
        "reference": "urn:uuid:2a5ed6fa-f040-43ca-8835-bab61097e693"
      },
      "authored": "2011-02-17T17:31:14+00:00",
      "item": [ {
        "linkId": "Tx220285",
        "text": "Has he been bleeding very heavily IN THE LAST HOUR?",
        "answer": [ {
          "valueString": "no"
        } ]
      } ]
    }
  }, {
    "fullUrl": "urn:uuid:1273a871-b5a7-4e61-8120-6bc313c7dabe",
    "resource": {
      "resourceType": "Questionnaire",
      "id": "1273a871-b5a7-4e61-8120-6bc313c7dabe",
      "identifier": [ {
        "value": "8067b9b2-e604-4414-b56f-8e3cc4de4b1b"
      } ],
      "version": "2011-02-17T17:31:14.313Z",
      "status": "active",
      "experimental": false,
      "date": "2011-02-17T17:31:14+00:00",
      "publisher": "User ID: '3137' User name: 'redacted' User skill set: 'T1'",
      "lastReviewDate": "2011-02-17",
      "jurisdiction": [ {
        "text": "England"
      } ],
      "contact": [ {
        "telecom": [ {
          "system": "phone",
          "value": "redacted"
        } ]
      } ],
      "subjectType": [ "Patient" ],
      "item": [ {
        "linkId": "8067b9b2-e604-4414-b56f-8e3cc4de4b1b",
        "prefix": "60",
        "text": "Has he been bleeding very heavily IN THE LAST HOUR?",
        "type": "choice",
        "required": true,
        "repeats": false,
        "option": [ {
          "valueString": "blood spurting from a wound, Selected: false"
        }, {
          "valueString": "an egg cupful or more of red blood from a body opening, Selected: false"
        }, {
          "valueString": "an egg cupful or more from a wound, Selected: false"
        }, {
          "valueString": "not sure, Selected: false"
        }, {
          "valueString": "no, Selected: true"
        } ]
      } ]
    }
  }, {
    "fullUrl": "urn:uuid:def5844c-76a8-462f-9bd1-956ea3d5a4b8",
    "resource": {
      "resourceType": "QuestionnaireResponse",
      "id": "def5844c-76a8-462f-9bd1-956ea3d5a4b8",
      "identifier": {
        "value": "8067b9b2-e604-4414-b56f-8e3cc4de4b1b"
      },
      "questionnaire": {
        "reference": "urn:uuid:bd2625d5-cd60-4688-ab50-9a0dcb1f04fd"
      },
      "status": "completed",
      "subject": {
        "reference": "urn:uuid:be63024c-aceb-4021-945f-54a3334b1879"
      },
      "context": {
        "reference": "urn:uuid:2a5ed6fa-f040-43ca-8835-bab61097e693"
      },
      "authored": "2011-02-17T17:31:14+00:00",
      "item": [ {
        "linkId": "N/A",
        "text": "SocialConcernsExcluded",
        "answer": [ {
          "valueString": "*"
        } ]
      } ]
    }
  }, {
    "fullUrl": "urn:uuid:bd2625d5-cd60-4688-ab50-9a0dcb1f04fd",
    "resource": {
      "resourceType": "Questionnaire",
      "id": "bd2625d5-cd60-4688-ab50-9a0dcb1f04fd",
      "identifier": [ {
        "value": "8067b9b2-e604-4414-b56f-8e3cc4de4b1b"
      } ],
      "version": "2011-02-17T17:31:14.313Z",
      "status": "active",
      "experimental": false,
      "date": "2011-02-17T17:31:14+00:00",
      "publisher": "User ID: '3137' User name: 'redacted' User skill set: 'T1'",
      "lastReviewDate": "2011-02-17",
      "jurisdiction": [ {
        "text": "England"
      } ],
      "contact": [ {
        "telecom": [ {
          "system": "phone",
          "value": "redacted"
        } ]
      } ],
      "subjectType": [ "Patient" ],
      "item": [ {
        "linkId": "8067b9b2-e604-4414-b56f-8e3cc4de4b1b",
        "prefix": "2050",
        "text": "SocialConcernsExcluded",
        "type": "choice",
        "required": true,
        "repeats": false,
        "option": [ {
          "valueString": "==\"present\", Selected: false"
        }, {
          "valueString": "*, Selected: true"
        } ]
      } ]
    }
  }, {
    "fullUrl": "urn:uuid:9a0e4bc5-d25a-4827-9320-00c0a43f1840",
    "resource": {
      "resourceType": "QuestionnaireResponse",
      "id": "9a0e4bc5-d25a-4827-9320-00c0a43f1840",
      "identifier": {
        "value": "8067b9b2-e604-4414-b56f-8e3cc4de4b1b"
      },
      "questionnaire": {
        "reference": "urn:uuid:0c93a046-ceed-4fca-a6df-1b74d78eae26"
      },
      "status": "completed",
      "subject": {
        "reference": "urn:uuid:be63024c-aceb-4021-945f-54a3334b1879"
      },
      "context": {
        "reference": "urn:uuid:2a5ed6fa-f040-43ca-8835-bab61097e693"
      },
      "authored": "2011-02-17T17:31:14+00:00",
      "item": [ {
        "linkId": "Tx140159",
        "text": "What is the reason for ending the assessment?",
        "answer": [ {
          "valueString": "transfer to a clinician"
        } ]
      } ]
    }
  }, {
    "fullUrl": "urn:uuid:0c93a046-ceed-4fca-a6df-1b74d78eae26",
    "resource": {
      "resourceType": "Questionnaire",
      "id": "0c93a046-ceed-4fca-a6df-1b74d78eae26",
      "identifier": [ {
        "value": "8067b9b2-e604-4414-b56f-8e3cc4de4b1b"
      } ],
      "version": "2011-02-17T17:31:14.313Z",
      "status": "active",
      "experimental": false,
      "date": "2011-02-17T17:31:14+00:00",
      "publisher": "User ID: '3137' User name: 'redacted' User skill set: 'T1'",
      "lastReviewDate": "2011-02-17",
      "jurisdiction": [ {
        "text": "England"
      } ],
      "contact": [ {
        "telecom": [ {
          "system": "phone",
          "value": "redacted"
        } ]
      } ],
      "subjectType": [ "Patient" ],
      "item": [ {
        "linkId": "8067b9b2-e604-4414-b56f-8e3cc4de4b1b",
        "prefix": "0",
        "text": "What is the reason for ending the assessment?",
        "type": "choice",
        "required": true,
        "repeats": false,
        "option": [ {
          "valueString": "the phone line went dead, Selected: false"
        }, {
          "valueString": "the caller terminated the call (specify), Selected: false"
        }, {
          "valueString": "I terminated the call (specify), Selected: false"
        }, {
          "valueString": "triage not possible, Selected: false"
        }, {
          "valueString": "transfer to a clinician, Selected: true"
        } ]
      } ]
    }
  }, {
    "fullUrl": "urn:uuid:279dcd55-4e97-44d4-bb8a-0c8b83612cd5",
    "resource": {
      "resourceType": "QuestionnaireResponse",
      "id": "279dcd55-4e97-44d4-bb8a-0c8b83612cd5",
      "identifier": {
        "value": "8067b9b2-e604-4414-b56f-8e3cc4de4b1b"
      },
      "questionnaire": {
        "reference": "urn:uuid:dcbbbdda-1f50-434d-9011-c9e4e1f690df"
      },
      "status": "completed",
      "subject": {
        "reference": "urn:uuid:be63024c-aceb-4021-945f-54a3334b1879"
      },
      "context": {
        "reference": "urn:uuid:2a5ed6fa-f040-43ca-8835-bab61097e693"
      },
      "authored": "2011-02-17T17:31:14+00:00",
      "item": [ {
        "linkId": "Tx220408",
        "text": "WHAT IS THE REASON FOR TRANSFER TO A CLINICIAN?",
        "answer": [ {
          "valueString": "other complex call (specify)"
        } ]
      } ]
    }
  }, {
    "fullUrl": "urn:uuid:dcbbbdda-1f50-434d-9011-c9e4e1f690df",
    "resource": {
      "resourceType": "Questionnaire",
      "id": "dcbbbdda-1f50-434d-9011-c9e4e1f690df",
      "identifier": [ {
        "value": "8067b9b2-e604-4414-b56f-8e3cc4de4b1b"
      } ],
      "version": "2011-02-17T17:31:14.313Z",
      "status": "active",
      "experimental": false,
      "date": "2011-02-17T17:31:14+00:00",
      "publisher": "User ID: '3137' User name: 'redacted' User skill set: 'T1'",
      "lastReviewDate": "2011-02-17",
      "jurisdiction": [ {
        "text": "England"
      } ],
      "contact": [ {
        "telecom": [ {
          "system": "phone",
          "value": "redacted"
        } ]
      } ],
      "subjectType": [ "Patient" ],
      "item": [ {
        "linkId": "8067b9b2-e604-4414-b56f-8e3cc4de4b1b",
        "prefix": "50",
        "text": "WHAT IS THE REASON FOR TRANSFER TO A CLINICIAN?",
        "type": "choice",
        "required": true,
        "repeats": false,
        "option": [ {
          "valueString": "caller refuses disposition, Selected: false"
        }, {
          "valueString": "multiple unrelated symptoms, Selected: false"
        }, {
          "valueString": "difficulty obtaining adequate information, Selected: false"
        }, {
          "valueString": "medication or medical procedure enquiry, Selected: false"
        }, {
          "valueString": "declared medical history (details not required), Selected: false"
        }, {
          "valueString": "other complex call (specify), Selected: true"
        } ]
      } ]
    }
  }, {
    "fullUrl": "urn:uuid:90db6d0f-c9e2-4cc7-af51-d9210ec6e280",
    "resource": {
      "resourceType": "QuestionnaireResponse",
      "id": "90db6d0f-c9e2-4cc7-af51-d9210ec6e280",
      "identifier": {
        "value": "8067b9b2-e604-4414-b56f-8e3cc4de4b1b"
      },
      "questionnaire": {
        "reference": "urn:uuid:e7b4b7d7-df78-41a2-97ed-11fc397f9778"
      },
      "status": "completed",
      "subject": {
        "reference": "urn:uuid:be63024c-aceb-4021-945f-54a3334b1879"
      },
      "context": {
        "reference": "urn:uuid:2a5ed6fa-f040-43ca-8835-bab61097e693"
      },
      "authored": "2011-02-17T17:31:14+00:00",
      "item": [ {
        "linkId": "N/A",
        "text": "Speak to Clinician from our Service immediately"
      } ]
    }
  }, {
    "fullUrl": "urn:uuid:e7b4b7d7-df78-41a2-97ed-11fc397f9778",
    "resource": {
      "resourceType": "Questionnaire",
      "id": "e7b4b7d7-df78-41a2-97ed-11fc397f9778",
      "identifier": [ {
        "value": "8067b9b2-e604-4414-b56f-8e3cc4de4b1b"
      } ],
      "version": "2011-02-17T17:31:14.313Z",
      "status": "active",
      "experimental": false,
      "date": "2011-02-17T17:31:14+00:00",
      "publisher": "User ID: '3137' User name: 'redacted' User skill set: 'T1'",
      "lastReviewDate": "2011-02-17",
      "jurisdiction": [ {
        "text": "England"
      } ],
      "contact": [ {
        "telecom": [ {
          "system": "phone",
          "value": "redacted"
        } ]
      } ],
      "subjectType": [ "Patient" ],
      "item": [ {
        "linkId": "8067b9b2-e604-4414-b56f-8e3cc4de4b1b",
        "prefix": "0",
        "text": "Speak to Clinician from our Service immediately",
        "type": "choice",
        "required": true,
        "repeats": false,
        "option": [ {
          "valueString": ", Selected: false"
        } ]
      } ]
    }
  }, {
    "fullUrl": "urn:uuid:51fe502b-58ac-496d-8c89-d0edf8d95123",
    "resource": {
      "resourceType": "QuestionnaireResponse",
      "id": "51fe502b-58ac-496d-8c89-d0edf8d95123",
      "identifier": {
        "value": "8067b9b2-e604-4414-b56f-8e3cc4de4b1b"
      },
      "questionnaire": {
        "reference": "urn:uuid:0cf4628a-a258-49e1-abf7-00a08f02020c"
      },
      "status": "completed",
      "subject": {
        "reference": "urn:uuid:be63024c-aceb-4021-945f-54a3334b1879"
      },
      "context": {
        "reference": "urn:uuid:2a5ed6fa-f040-43ca-8835-bab61097e693"
      },
      "authored": "2011-02-17T17:31:14+00:00",
      "item": [ {
        "linkId": "N/A"
      } ]
    }
  }, {
    "fullUrl": "urn:uuid:0cf4628a-a258-49e1-abf7-00a08f02020c",
    "resource": {
      "resourceType": "Questionnaire",
      "id": "0cf4628a-a258-49e1-abf7-00a08f02020c",
      "identifier": [ {
        "value": "8067b9b2-e604-4414-b56f-8e3cc4de4b1b"
      } ],
      "version": "2011-02-17T17:31:14.313Z",
      "status": "active",
      "experimental": false,
      "date": "2011-02-17T17:31:14+00:00",
      "publisher": "User ID: '3137' User name: 'redacted' User skill set: 'T1'",
      "lastReviewDate": "2011-02-17",
      "jurisdiction": [ {
        "text": "England"
      } ],
      "contact": [ {
        "telecom": [ {
          "system": "phone",
          "value": "redacted"
        } ]
      } ],
      "subjectType": [ "Patient" ],
      "item": [ {
        "linkId": "8067b9b2-e604-4414-b56f-8e3cc4de4b1b",
        "prefix": "0",
        "type": "choice",
        "required": true,
        "repeats": false,
        "option": [ {
          "valueString": ", Selected: false"
        } ]
      } ]
    }
  }, {
    "fullUrl": "urn:uuid:34b8fd0c-a39a-4e9c-bc09-ad8c2930162f",
    "resource": {
      "resourceType": "QuestionnaireResponse",
      "id": "34b8fd0c-a39a-4e9c-bc09-ad8c2930162f",
      "identifier": {
        "value": "8067b9b2-e604-4414-b56f-8e3cc4de4b1b"
      },
      "questionnaire": {
        "reference": "urn:uuid:8c424c39-5c58-4d87-b25b-e3a5eff47cfc"
      },
      "status": "completed",
      "subject": {
        "reference": "urn:uuid:be63024c-aceb-4021-945f-54a3334b1879"
      },
      "context": {
        "reference": "urn:uuid:2a5ed6fa-f040-43ca-8835-bab61097e693"
      },
      "authored": "2011-02-17T17:31:14+00:00",
      "item": [ {
        "linkId": "N/A"
      } ]
    }
  }, {
    "fullUrl": "urn:uuid:8c424c39-5c58-4d87-b25b-e3a5eff47cfc",
    "resource": {
      "resourceType": "Questionnaire",
      "id": "8c424c39-5c58-4d87-b25b-e3a5eff47cfc",
      "identifier": [ {
        "value": "8067b9b2-e604-4414-b56f-8e3cc4de4b1b"
      } ],
      "version": "2011-02-17T17:31:14.313Z",
      "status": "active",
      "experimental": false,
      "date": "2011-02-17T17:31:14+00:00",
      "publisher": "User ID: '3137' User name: 'redacted' User skill set: 'T1'",
      "lastReviewDate": "2011-02-17",
      "jurisdiction": [ {
        "text": "England"
      } ],
      "contact": [ {
        "telecom": [ {
          "system": "phone",
          "value": "redacted"
        } ]
      } ],
      "subjectType": [ "Patient" ],
      "item": [ {
        "linkId": "8067b9b2-e604-4414-b56f-8e3cc4de4b1b",
        "prefix": "0",
        "type": "choice",
        "required": true,
        "repeats": false,
        "option": [ {
          "valueString": ", Selected: false"
        } ]
      } ]
    }
  }, {
    "fullUrl": "urn:uuid:afbc96ea-26bf-43f8-9767-70de7aaf17c2",
    "resource": {
      "resourceType": "QuestionnaireResponse",
      "id": "afbc96ea-26bf-43f8-9767-70de7aaf17c2",
      "identifier": {
        "value": "8067b9b2-e604-4414-b56f-8e3cc4de4b1b"
      },
      "questionnaire": {
        "reference": "urn:uuid:587bfe4c-5f55-479b-9a5a-3112cfa32962"
      },
      "status": "completed",
      "subject": {
        "reference": "urn:uuid:be63024c-aceb-4021-945f-54a3334b1879"
      },
      "context": {
        "reference": "urn:uuid:2a5ed6fa-f040-43ca-8835-bab61097e693"
      },
      "authored": "2011-02-17T17:31:14+00:00",
      "item": [ {
        "linkId": "Tx220109",
        "text": "What is the reason for the call?",
        "answer": [ {
          "valueString": "an injury or other health problem"
        } ]
      } ]
    }
  }, {
    "fullUrl": "urn:uuid:587bfe4c-5f55-479b-9a5a-3112cfa32962",
    "resource": {
      "resourceType": "Questionnaire",
      "id": "587bfe4c-5f55-479b-9a5a-3112cfa32962",
      "identifier": [ {
        "value": "8067b9b2-e604-4414-b56f-8e3cc4de4b1b"
      } ],
      "version": "2011-02-17T17:31:14.313Z",
      "status": "active",
      "experimental": false,
      "date": "2011-02-17T17:31:14+00:00",
      "publisher": "User ID: '3137' User name: 'redacted' User skill set: 'T1'",
      "lastReviewDate": "2011-02-17",
      "jurisdiction": [ {
        "text": "England"
      } ],
      "contact": [ {
        "telecom": [ {
          "system": "phone",
          "value": "redacted"
        } ]
      } ],
      "subjectType": [ "Patient" ],
      "item": [ {
        "linkId": "8067b9b2-e604-4414-b56f-8e3cc4de4b1b",
        "prefix": "5",
        "text": "What is the reason for the call?",
        "type": "choice",
        "required": true,
        "repeats": false,
        "option": [ {
          "valueString": "an injury or other health problem, Selected: true"
        }, {
          "valueString": "a need to access another healthcare provider, Selected: false"
        }, {
          "valueString": "a healthcare professional requesting contact with another clinician, Selected: false"
        }, {
          "valueString": "a report of results or tests, Selected: false"
        }, {
          "valueString": "more, Selected: false"
        } ]
      } ]
    }
  }, {
    "fullUrl": "urn:uuid:716699a2-29cc-4630-aa52-a262cd295674",
    "resource": {
      "resourceType": "QuestionnaireResponse",
      "id": "716699a2-29cc-4630-aa52-a262cd295674",
      "identifier": {
        "value": "8067b9b2-e604-4414-b56f-8e3cc4de4b1b"
      },
      "questionnaire": {
        "reference": "urn:uuid:e6ac5074-d480-44ad-ac03-3409bcaee504"
      },
      "status": "completed",
      "subject": {
        "reference": "urn:uuid:be63024c-aceb-4021-945f-54a3334b1879"
      },
      "context": {
        "reference": "urn:uuid:2a5ed6fa-f040-43ca-8835-bab61097e693"
      },
      "authored": "2011-02-17T17:31:14+00:00",
      "item": [ {
        "linkId": "Tx140118",
        "text": "Has the baby just been born?",
        "answer": [ {
          "valueString": "no"
        } ]
      } ]
    }
  }, {
    "fullUrl": "urn:uuid:e6ac5074-d480-44ad-ac03-3409bcaee504",
    "resource": {
      "resourceType": "Questionnaire",
      "id": "e6ac5074-d480-44ad-ac03-3409bcaee504",
      "identifier": [ {
        "value": "8067b9b2-e604-4414-b56f-8e3cc4de4b1b"
      } ],
      "version": "2011-02-17T17:31:14.313Z",
      "status": "active",
      "experimental": false,
      "date": "2011-02-17T17:31:14+00:00",
      "publisher": "User ID: '3137' User name: 'redacted' User skill set: 'T1'",
      "lastReviewDate": "2011-02-17",
      "jurisdiction": [ {
        "text": "England"
      } ],
      "contact": [ {
        "telecom": [ {
          "system": "phone",
          "value": "redacted"
        } ]
      } ],
      "subjectType": [ "Patient" ],
      "item": [ {
        "linkId": "8067b9b2-e604-4414-b56f-8e3cc4de4b1b",
        "prefix": "35",
        "text": "Has the baby just been born?",
        "type": "choice",
        "required": true,
        "repeats": false,
        "option": [ {
          "valueString": "yes, Selected: false"
        }, {
          "valueString": "not sure, Selected: false"
        }, {
          "valueString": "no, Selected: true"
        } ]
      } ]
    }
  }, {
    "fullUrl": "urn:uuid:34b414f9-5914-4389-bbce-b3ce687cc488",
    "resource": {
      "resourceType": "QuestionnaireResponse",
      "id": "34b414f9-5914-4389-bbce-b3ce687cc488",
      "identifier": {
        "value": "8067b9b2-e604-4414-b56f-8e3cc4de4b1b"
      },
      "questionnaire": {
        "reference": "urn:uuid:c0ae79e0-7802-4bde-9f13-2c4f6849eb72"
      },
      "status": "completed",
      "subject": {
        "reference": "urn:uuid:be63024c-aceb-4021-945f-54a3334b1879"
      },
      "context": {
        "reference": "urn:uuid:2a5ed6fa-f040-43ca-8835-bab61097e693"
      },
      "authored": "2011-02-17T17:31:14+00:00",
      "item": [ {
        "linkId": "Tx220110",
        "text": "Is he breathing and conscious?",
        "answer": [ {
          "valueString": "breathing AND conscious"
        } ]
      } ]
    }
  }, {
    "fullUrl": "urn:uuid:c0ae79e0-7802-4bde-9f13-2c4f6849eb72",
    "resource": {
      "resourceType": "Questionnaire",
      "id": "c0ae79e0-7802-4bde-9f13-2c4f6849eb72",
      "identifier": [ {
        "value": "8067b9b2-e604-4414-b56f-8e3cc4de4b1b"
      } ],
      "version": "2011-02-17T17:31:14.313Z",
      "status": "active",
      "experimental": false,
      "date": "2011-02-17T17:31:14+00:00",
      "publisher": "User ID: '3137' User name: 'redacted' User skill set: 'T1'",
      "lastReviewDate": "2011-02-17",
      "jurisdiction": [ {
        "text": "England"
      } ],
      "contact": [ {
        "telecom": [ {
          "system": "phone",
          "value": "redacted"
        } ]
      } ],
      "subjectType": [ "Patient" ],
      "item": [ {
        "linkId": "8067b9b2-e604-4414-b56f-8e3cc4de4b1b",
        "prefix": "40",
        "text": "Is he breathing and conscious?",
        "type": "choice",
        "required": true,
        "repeats": false,
        "option": [ {
          "valueString": "breathing AND conscious, Selected: true"
        }, {
          "valueString": "breathing but NOT conscious (includes current fitting), Selected: false"
        }, {
          "valueString": "NOT breathing, Selected: false"
        }, {
          "valueString": "choking now, Selected: false"
        } ]
      } ]
    }
  }, {
    "fullUrl": "urn:uuid:2e6798d8-1b6e-4d45-b68b-8be91f2918f5",
    "resource": {
      "resourceType": "QuestionnaireResponse",
      "id": "2e6798d8-1b6e-4d45-b68b-8be91f2918f5",
      "identifier": {
        "value": "8067b9b2-e604-4414-b56f-8e3cc4de4b1b"
      },
      "questionnaire": {
        "reference": "urn:uuid:73c7465a-2c8b-4286-9d37-4fd4f89ede72"
      },
      "status": "completed",
      "subject": {
        "reference": "urn:uuid:be63024c-aceb-4021-945f-54a3334b1879"
      },
      "context": {
        "reference": "urn:uuid:2a5ed6fa-f040-43ca-8835-bab61097e693"
      },
      "authored": "2011-02-17T17:31:14+00:00",
      "item": [ {
        "linkId": "Tx220285",
        "text": "Has he been bleeding very heavily IN THE LAST HOUR?",
        "answer": [ {
          "valueString": "an egg cupful or more from a wound"
        } ]
      } ]
    }
  }, {
    "fullUrl": "urn:uuid:73c7465a-2c8b-4286-9d37-4fd4f89ede72",
    "resource": {
      "resourceType": "Questionnaire",
      "id": "73c7465a-2c8b-4286-9d37-4fd4f89ede72",
      "identifier": [ {
        "value": "8067b9b2-e604-4414-b56f-8e3cc4de4b1b"
      } ],
      "version": "2011-02-17T17:31:14.313Z",
      "status": "active",
      "experimental": false,
      "date": "2011-02-17T17:31:14+00:00",
      "publisher": "User ID: '3137' User name: 'redacted' User skill set: 'T1'",
      "lastReviewDate": "2011-02-17",
      "jurisdiction": [ {
        "text": "England"
      } ],
      "contact": [ {
        "telecom": [ {
          "system": "phone",
          "value": "redacted"
        } ]
      } ],
      "subjectType": [ "Patient" ],
      "item": [ {
        "linkId": "8067b9b2-e604-4414-b56f-8e3cc4de4b1b",
        "prefix": "60",
        "text": "Has he been bleeding very heavily IN THE LAST HOUR?",
        "type": "choice",
        "required": true,
        "repeats": false,
        "option": [ {
          "valueString": "blood spurting from a wound, Selected: false"
        }, {
          "valueString": "an egg cupful or more of red blood from a body opening, Selected: false"
        }, {
          "valueString": "an egg cupful or more from a wound, Selected: true"
        }, {
          "valueString": "not sure, Selected: false"
        }, {
          "valueString": "no, Selected: false"
        } ]
      } ]
    }
  }, {
    "fullUrl": "urn:uuid:52897cd7-78f7-4f4f-801b-97a9c192b90b",
    "resource": {
      "resourceType": "QuestionnaireResponse",
      "id": "52897cd7-78f7-4f4f-801b-97a9c192b90b",
      "identifier": {
        "value": "8067b9b2-e604-4414-b56f-8e3cc4de4b1b"
      },
      "questionnaire": {
        "reference": "urn:uuid:7e8687fa-f912-41f3-8dbf-05408fc3e135"
      },
      "status": "completed",
      "subject": {
        "reference": "urn:uuid:be63024c-aceb-4021-945f-54a3334b1879"
      },
      "context": {
        "reference": "urn:uuid:2a5ed6fa-f040-43ca-8835-bab61097e693"
      },
      "authored": "2011-02-17T17:31:14+00:00",
      "item": [ {
        "linkId": "Tx140109",
        "text": "Is he fighting desperately for every breath?",
        "answer": [ {
          "valueString": "no"
        } ]
      } ]
    }
  }, {
    "fullUrl": "urn:uuid:7e8687fa-f912-41f3-8dbf-05408fc3e135",
    "resource": {
      "resourceType": "Questionnaire",
      "id": "7e8687fa-f912-41f3-8dbf-05408fc3e135",
      "identifier": [ {
        "value": "8067b9b2-e604-4414-b56f-8e3cc4de4b1b"
      } ],
      "version": "2011-02-17T17:31:14.313Z",
      "status": "active",
      "experimental": false,
      "date": "2011-02-17T17:31:14+00:00",
      "publisher": "User ID: '3137' User name: 'redacted' User skill set: 'T1'",
      "lastReviewDate": "2011-02-17",
      "jurisdiction": [ {
        "text": "England"
      } ],
      "contact": [ {
        "telecom": [ {
          "system": "phone",
          "value": "redacted"
        } ]
      } ],
      "subjectType": [ "Patient" ],
      "item": [ {
        "linkId": "8067b9b2-e604-4414-b56f-8e3cc4de4b1b",
        "prefix": "20000",
        "text": "Is he fighting desperately for every breath?",
        "type": "choice",
        "required": true,
        "repeats": false,
        "option": [ {
          "valueString": "yes, Selected: false"
        }, {
          "valueString": "not sure, Selected: false"
        }, {
          "valueString": "no, Selected: true"
        } ]
      } ]
    }
  }, {
    "fullUrl": "urn:uuid:b55f1193-ed2d-4be9-b847-8619bdee8db7",
    "resource": {
      "resourceType": "QuestionnaireResponse",
      "id": "b55f1193-ed2d-4be9-b847-8619bdee8db7",
      "identifier": {
        "value": "8067b9b2-e604-4414-b56f-8e3cc4de4b1b"
      },
      "questionnaire": {
        "reference": "urn:uuid:01aa7b59-c920-489d-90ef-9470dc341c03"
      },
      "status": "completed",
      "subject": {
        "reference": "urn:uuid:be63024c-aceb-4021-945f-54a3334b1879"
      },
      "context": {
        "reference": "urn:uuid:2a5ed6fa-f040-43ca-8835-bab61097e693"
      },
      "authored": "2011-02-17T17:31:14+00:00",
      "item": [ {
        "linkId": "Tx220563",
        "text": "Is he limp, floppy and/or unresponsive?",
        "answer": [ {
          "valueString": "no"
        } ]
      } ]
    }
  }, {
    "fullUrl": "urn:uuid:01aa7b59-c920-489d-90ef-9470dc341c03",
    "resource": {
      "resourceType": "Questionnaire",
      "id": "01aa7b59-c920-489d-90ef-9470dc341c03",
      "identifier": [ {
        "value": "8067b9b2-e604-4414-b56f-8e3cc4de4b1b"
      } ],
      "version": "2011-02-17T17:31:14.313Z",
      "status": "active",
      "experimental": false,
      "date": "2011-02-17T17:31:14+00:00",
      "publisher": "User ID: '3137' User name: 'redacted' User skill set: 'T1'",
      "lastReviewDate": "2011-02-17",
      "jurisdiction": [ {
        "text": "England"
      } ],
      "contact": [ {
        "telecom": [ {
          "system": "phone",
          "value": "redacted"
        } ]
      } ],
      "subjectType": [ "Patient" ],
      "item": [ {
        "linkId": "8067b9b2-e604-4414-b56f-8e3cc4de4b1b",
        "prefix": "20400",
        "text": "Is he limp, floppy and/or unresponsive?",
        "type": "choice",
        "required": true,
        "repeats": false,
        "option": [ {
          "valueString": "yes, Selected: false"
        }, {
          "valueString": "not sure, Selected: false"
        }, {
          "valueString": "no, Selected: true"
        } ]
      } ]
    }
  }, {
    "fullUrl": "urn:uuid:636dc409-3485-4143-96c9-90ffc8d14b9a",
    "resource": {
      "resourceType": "QuestionnaireResponse",
      "id": "636dc409-3485-4143-96c9-90ffc8d14b9a",
      "identifier": {
        "value": "8067b9b2-e604-4414-b56f-8e3cc4de4b1b"
      },
      "questionnaire": {
        "reference": "urn:uuid:14e05e09-0656-4f6e-a0cd-126f604c9453"
      },
      "status": "completed",
      "subject": {
        "reference": "urn:uuid:be63024c-aceb-4021-945f-54a3334b1879"
      },
      "context": {
        "reference": "urn:uuid:2a5ed6fa-f040-43ca-8835-bab61097e693"
      },
      "authored": "2011-02-17T17:31:14+00:00",
      "item": [ {
        "linkId": "Tx220561",
        "text": "Is he warm to touch?",
        "answer": [ {
          "valueString": "yes"
        } ]
      } ]
    }
  }, {
    "fullUrl": "urn:uuid:14e05e09-0656-4f6e-a0cd-126f604c9453",
    "resource": {
      "resourceType": "Questionnaire",
      "id": "14e05e09-0656-4f6e-a0cd-126f604c9453",
      "identifier": [ {
        "value": "8067b9b2-e604-4414-b56f-8e3cc4de4b1b"
      } ],
      "version": "2011-02-17T17:31:14.313Z",
      "status": "active",
      "experimental": false,
      "date": "2011-02-17T17:31:14+00:00",
      "publisher": "User ID: '3137' User name: 'redacted' User skill set: 'T1'",
      "lastReviewDate": "2011-02-17",
      "jurisdiction": [ {
        "text": "England"
      } ],
      "contact": [ {
        "telecom": [ {
          "system": "phone",
          "value": "redacted"
        } ]
      } ],
      "subjectType": [ "Patient" ],
      "item": [ {
        "linkId": "8067b9b2-e604-4414-b56f-8e3cc4de4b1b",
        "prefix": "20450",
        "text": "Is he warm to touch?",
        "type": "choice",
        "required": true,
        "repeats": false,
        "option": [ {
          "valueString": "yes, Selected: true"
        }, {
          "valueString": "not sure, Selected: false"
        }, {
          "valueString": "no, Selected: false"
        }, {
          "valueString": "not safe to touch, Selected: false"
        } ]
      } ]
    }
  }, {
    "fullUrl": "urn:uuid:95812048-6c23-4467-8721-c0b67a6fb74b",
    "resource": {
      "resourceType": "QuestionnaireResponse",
      "id": "95812048-6c23-4467-8721-c0b67a6fb74b",
      "identifier": {
        "value": "8067b9b2-e604-4414-b56f-8e3cc4de4b1b"
      },
      "questionnaire": {
        "reference": "urn:uuid:8057d5f4-3b12-4123-a862-34ed141dd6c1"
      },
      "status": "completed",
      "subject": {
        "reference": "urn:uuid:be63024c-aceb-4021-945f-54a3334b1879"
      },
      "context": {
        "reference": "urn:uuid:2a5ed6fa-f040-43ca-8835-bab61097e693"
      },
      "authored": "2011-02-17T17:31:14+00:00",
      "item": [ {
        "linkId": "Tx120019",
        "text": "Was the injury caused by any of the following?",
        "answer": [ {
          "valueString": "no"
        } ]
      } ]
    }
  }, {
    "fullUrl": "urn:uuid:8057d5f4-3b12-4123-a862-34ed141dd6c1",
    "resource": {
      "resourceType": "Questionnaire",
      "id": "8057d5f4-3b12-4123-a862-34ed141dd6c1",
      "identifier": [ {
        "value": "8067b9b2-e604-4414-b56f-8e3cc4de4b1b"
      } ],
      "version": "2011-02-17T17:31:14.313Z",
      "status": "active",
      "experimental": false,
      "date": "2011-02-17T17:31:14+00:00",
      "publisher": "User ID: '3137' User name: 'redacted' User skill set: 'T1'",
      "lastReviewDate": "2011-02-17",
      "jurisdiction": [ {
        "text": "England"
      } ],
      "contact": [ {
        "telecom": [ {
          "system": "phone",
          "value": "redacted"
        } ]
      } ],
      "subjectType": [ "Patient" ],
      "item": [ {
        "linkId": "8067b9b2-e604-4414-b56f-8e3cc4de4b1b",
        "prefix": "20800",
        "text": "Was the injury caused by any of the following?",
        "type": "choice",
        "required": true,
        "repeats": false,
        "option": [ {
          "valueString": "a gunshot, Selected: false"
        }, {
          "valueString": "a stabbing, Selected: false"
        }, {
          "valueString": "being ejected from a vehicle, Selected: false"
        }, {
          "valueString": "not sure, Selected: false"
        }, {
          "valueString": "no, Selected: true"
        } ]
      } ]
    }
  }, {
    "fullUrl": "urn:uuid:6d6054cf-575a-4fef-bde9-aeae1c65907b",
    "resource": {
      "resourceType": "QuestionnaireResponse",
      "id": "6d6054cf-575a-4fef-bde9-aeae1c65907b",
      "identifier": {
        "value": "8067b9b2-e604-4414-b56f-8e3cc4de4b1b"
      },
      "questionnaire": {
        "reference": "urn:uuid:8eb97234-2e81-48ee-8e0c-90f9c91a4418"
      },
      "status": "completed",
      "subject": {
        "reference": "urn:uuid:be63024c-aceb-4021-945f-54a3334b1879"
      },
      "context": {
        "reference": "urn:uuid:2a5ed6fa-f040-43ca-8835-bab61097e693"
      },
      "authored": "2011-02-17T17:31:14+00:00",
      "item": [ {
        "linkId": "Tx220286",
        "text": "DID THE INJURY INVOLVE ANY OF THE FOLLOWING?",
        "answer": [ {
          "valueString": "no"
        } ]
      } ]
    }
  }, {
    "fullUrl": "urn:uuid:8eb97234-2e81-48ee-8e0c-90f9c91a4418",
    "resource": {
      "resourceType": "Questionnaire",
      "id": "8eb97234-2e81-48ee-8e0c-90f9c91a4418",
      "identifier": [ {
        "value": "8067b9b2-e604-4414-b56f-8e3cc4de4b1b"
      } ],
      "version": "2011-02-17T17:31:14.313Z",
      "status": "active",
      "experimental": false,
      "date": "2011-02-17T17:31:14+00:00",
      "publisher": "User ID: '3137' User name: 'redacted' User skill set: 'T1'",
      "lastReviewDate": "2011-02-17",
      "jurisdiction": [ {
        "text": "England"
      } ],
      "contact": [ {
        "telecom": [ {
          "system": "phone",
          "value": "redacted"
        } ]
      } ],
      "subjectType": [ "Patient" ],
      "item": [ {
        "linkId": "8067b9b2-e604-4414-b56f-8e3cc4de4b1b",
        "prefix": "23100",
        "text": "DID THE INJURY INVOLVE ANY OF THE FOLLOWING?",
        "type": "choice",
        "required": true,
        "repeats": false,
        "option": [ {
          "valueString": "a fall of 5 metres or more (specify), Selected: false"
        }, {
          "valueString": "multiple major injuries (specify), Selected: false"
        }, {
          "valueString": "major wound or amputation - not just involving a single finger or toe (specify), Selected: false"
        }, {
          "valueString": "being knocked over by a blast (specify), Selected: false"
        }, {
          "valueString": "not sure, Selected: false"
        }, {
          "valueString": "no, Selected: true"
        } ]
      } ]
    }
  }, {
    "fullUrl": "urn:uuid:3ca1cee1-f10a-4938-b1a6-a960cf498e99",
    "resource": {
      "resourceType": "QuestionnaireResponse",
      "id": "3ca1cee1-f10a-4938-b1a6-a960cf498e99",
      "identifier": {
        "value": "8067b9b2-e604-4414-b56f-8e3cc4de4b1b"
      },
      "questionnaire": {
        "reference": "urn:uuid:5437bb18-023e-4f6b-8f1d-a07ed523a369"
      },
      "status": "completed",
      "subject": {
        "reference": "urn:uuid:be63024c-aceb-4021-945f-54a3334b1879"
      },
      "context": {
        "reference": "urn:uuid:2a5ed6fa-f040-43ca-8835-bab61097e693"
      },
      "authored": "2011-02-17T17:31:14+00:00",
      "item": [ {
        "linkId": "Tx140159",
        "text": "What is the reason for ending the assessment?",
        "answer": [ {
          "valueString": "transfer to a clinician"
        } ]
      } ]
    }
  }, {
    "fullUrl": "urn:uuid:5437bb18-023e-4f6b-8f1d-a07ed523a369",
    "resource": {
      "resourceType": "Questionnaire",
      "id": "5437bb18-023e-4f6b-8f1d-a07ed523a369",
      "identifier": [ {
        "value": "8067b9b2-e604-4414-b56f-8e3cc4de4b1b"
      } ],
      "version": "2011-02-17T17:31:14.313Z",
      "status": "active",
      "experimental": false,
      "date": "2011-02-17T17:31:14+00:00",
      "publisher": "User ID: '3137' User name: 'redacted' User skill set: 'T1'",
      "lastReviewDate": "2011-02-17",
      "jurisdiction": [ {
        "text": "England"
      } ],
      "contact": [ {
        "telecom": [ {
          "system": "phone",
          "value": "redacted"
        } ]
      } ],
      "subjectType": [ "Patient" ],
      "item": [ {
        "linkId": "8067b9b2-e604-4414-b56f-8e3cc4de4b1b",
        "prefix": "0",
        "text": "What is the reason for ending the assessment?",
        "type": "choice",
        "required": true,
        "repeats": false,
        "option": [ {
          "valueString": "the phone line went dead, Selected: false"
        }, {
          "valueString": "the caller terminated the call (specify), Selected: false"
        }, {
          "valueString": "I terminated the call (specify), Selected: false"
        }, {
          "valueString": "triage not possible, Selected: false"
        }, {
          "valueString": "transfer to a clinician, Selected: true"
        } ]
      } ]
    }
  }, {
    "fullUrl": "urn:uuid:bac135b1-fbac-4204-a9da-09b8dcad583c",
    "resource": {
      "resourceType": "QuestionnaireResponse",
      "id": "bac135b1-fbac-4204-a9da-09b8dcad583c",
      "identifier": {
        "value": "8067b9b2-e604-4414-b56f-8e3cc4de4b1b"
      },
      "questionnaire": {
        "reference": "urn:uuid:f2514550-9261-4753-b470-060b9c04f71b"
      },
      "status": "completed",
      "subject": {
        "reference": "urn:uuid:be63024c-aceb-4021-945f-54a3334b1879"
      },
      "context": {
        "reference": "urn:uuid:2a5ed6fa-f040-43ca-8835-bab61097e693"
      },
      "authored": "2011-02-17T17:31:14+00:00",
      "item": [ {
        "linkId": "Tx220286",
        "text": "DID THE INJURY INVOLVE ANY OF THE FOLLOWING?",
        "answer": [ {
          "valueString": "no"
        } ]
      } ]
    }
  }, {
    "fullUrl": "urn:uuid:f2514550-9261-4753-b470-060b9c04f71b",
    "resource": {
      "resourceType": "Questionnaire",
      "id": "f2514550-9261-4753-b470-060b9c04f71b",
      "identifier": [ {
        "value": "8067b9b2-e604-4414-b56f-8e3cc4de4b1b"
      } ],
      "version": "2011-02-17T17:31:14.313Z",
      "status": "active",
      "experimental": false,
      "date": "2011-02-17T17:31:14+00:00",
      "publisher": "User ID: '3137' User name: 'redacted' User skill set: 'T1'",
      "lastReviewDate": "2011-02-17",
      "jurisdiction": [ {
        "text": "England"
      } ],
      "contact": [ {
        "telecom": [ {
          "system": "phone",
          "value": "redacted"
        } ]
      } ],
      "subjectType": [ "Patient" ],
      "item": [ {
        "linkId": "8067b9b2-e604-4414-b56f-8e3cc4de4b1b",
        "prefix": "23100",
        "text": "DID THE INJURY INVOLVE ANY OF THE FOLLOWING?",
        "type": "choice",
        "required": true,
        "repeats": false,
        "option": [ {
          "valueString": "a fall of 5 metres or more (specify), Selected: false"
        }, {
          "valueString": "multiple major injuries (specify), Selected: false"
        }, {
          "valueString": "major wound or amputation - not just involving a single finger or toe (specify), Selected: false"
        }, {
          "valueString": "being knocked over by a blast (specify), Selected: false"
        }, {
          "valueString": "not sure, Selected: false"
        }, {
          "valueString": "no, Selected: true"
        } ]
      } ]
    }
  }, {
    "fullUrl": "urn:uuid:3ab68791-5384-4e1d-9758-d3b1c71fe0b7",
    "resource": {
      "resourceType": "QuestionnaireResponse",
      "id": "3ab68791-5384-4e1d-9758-d3b1c71fe0b7",
      "identifier": {
        "value": "8067b9b2-e604-4414-b56f-8e3cc4de4b1b"
      },
      "questionnaire": {
        "reference": "urn:uuid:09fb384b-2f9c-4af3-aa68-cf93e11a8dc6"
      },
      "status": "completed",
      "subject": {
        "reference": "urn:uuid:be63024c-aceb-4021-945f-54a3334b1879"
      },
      "context": {
        "reference": "urn:uuid:2a5ed6fa-f040-43ca-8835-bab61097e693"
      },
      "authored": "2011-02-17T17:31:14+00:00",
      "item": [ {
        "linkId": "N/A",
        "text": "Dispatch 19 minute ambulance"
      } ]
    }
  }, {
    "fullUrl": "urn:uuid:09fb384b-2f9c-4af3-aa68-cf93e11a8dc6",
    "resource": {
      "resourceType": "Questionnaire",
      "id": "09fb384b-2f9c-4af3-aa68-cf93e11a8dc6",
      "identifier": [ {
        "value": "8067b9b2-e604-4414-b56f-8e3cc4de4b1b"
      } ],
      "version": "2011-02-17T17:31:14.313Z",
      "status": "active",
      "experimental": false,
      "date": "2011-02-17T17:31:14+00:00",
      "publisher": "User ID: '3137' User name: 'redacted' User skill set: 'T1'",
      "lastReviewDate": "2011-02-17",
      "jurisdiction": [ {
        "text": "England"
      } ],
      "contact": [ {
        "telecom": [ {
          "system": "phone",
          "value": "redacted"
        } ]
      } ],
      "subjectType": [ "Patient" ],
      "item": [ {
        "linkId": "8067b9b2-e604-4414-b56f-8e3cc4de4b1b",
        "prefix": "24100",
        "text": "Dispatch 19 minute ambulance",
        "type": "choice",
        "required": true,
        "repeats": false,
        "option": [ {
          "valueString": ", Selected: false"
        } ]
      } ]
    }
  }, {
    "fullUrl": "urn:uuid:e48c964e-23d5-4d9a-afa9-7e128ccae3f9",
    "resource": {
      "resourceType": "PractitionerRole",
      "id": "e48c964e-23d5-4d9a-afa9-7e128ccae3f9",
      "practitioner": {
        "reference": "urn:uuid:e315603a-f2e9-45ed-a543-ee17d5534548"
      },
      "organization": {
        "reference": "urn:uuid:0821a0f8-e224-40f2-9eb3-7cb6fcf0cbc5"
      },
      "code": [ {
        "coding": [ {
          "system": "2.16.840.1.113883.2.1.3.2.4.17.196",
          "code": "T1",
          "display": "Nurse Triage Practitioner"
        } ]
      } ]
    }
  }, {
    "fullUrl": "urn:uuid:0821a0f8-e224-40f2-9eb3-7cb6fcf0cbc5",
    "resource": {
      "resourceType": "Organization",
      "id": "0821a0f8-e224-40f2-9eb3-7cb6fcf0cbc5",
      "identifier": [ {
        "value": "5L399"
      } ],
      "name": "Medway NHS Foundation Trust"
    }
  }, {
    "fullUrl": "urn:uuid:79a795ad-d4b2-40ac-b767-e26d5b0ed653",
    "resource": {
      "resourceType": "PractitionerRole",
      "id": "79a795ad-d4b2-40ac-b767-e26d5b0ed653",
      "practitioner": {
        "reference": "urn:uuid:51804a37-d8c2-485b-b71e-4a25820f0068"
      },
      "organization": {
        "reference": "urn:uuid:3dcb7fb1-1f52-4ef0-a52b-5e565b1f5da9"
      },
      "code": [ {
        "coding": [ {
          "system": "2.16.840.1.113883.2.1.3.2.4.17.196",
          "code": "R0010",
          "display": "Medical Director"
        } ]
      } ]
    }
  }, {
    "fullUrl": "urn:uuid:3dcb7fb1-1f52-4ef0-a52b-5e565b1f5da9",
    "resource": {
      "resourceType": "Organization",
      "id": "3dcb7fb1-1f52-4ef0-a52b-5e565b1f5da9",
      "identifier": [ {
        "value": "VDE232323"
      } ],
      "name": "Medway South Out of Hours Centre"
    }
  }, {
    "fullUrl": "urn:uuid:de76ed96-8172-46f5-9976-4b23d7bb274e",
    "resource": {
      "resourceType": "Device",
      "id": "de76ed96-8172-46f5-9976-4b23d7bb274e",
      "model": "111 Adaptor",
      "version": "1.0.0"
    }
  }, {
    "fullUrl": "urn:uuid:7dfad2a9-08cf-4c32-bac9-527ee7b6a96e",
    "resource": {
      "resourceType": "List",
      "id": "7dfad2a9-08cf-4c32-bac9-527ee7b6a96e",
      "status": "current",
      "mode": "working",
      "title": "111 Report List",
      "code": {
        "coding": [ {
          "system": "http://snomed.info/sct",
          "code": "225390008",
          "display": "Triage"
        } ]
      },
      "subject": {
        "reference": "urn:uuid:be63024c-aceb-4021-945f-54a3334b1879"
      },
      "encounter": {
        "reference": "urn:uuid:2a5ed6fa-f040-43ca-8835-bab61097e693"
      },
      "date": "2021-10-11T06:41:43+00:00",
      "source": {
        "reference": "urn:uuid:de76ed96-8172-46f5-9976-4b23d7bb274e"
      },
      "orderedBy": {
        "coding": [ {
          "system": "http://hl7.org/fhir/list-order",
          "code": "event-date",
          "display": "Sorted by Event Date"
        } ]
      },
      "entry": [ {
        "item": {
          "reference": "urn:uuid:999f2832-f399-41f6-ba9a-e1e3c50d44ba"
        }
      }, {
        "item": {
          "reference": "urn:uuid:51804a37-d8c2-485b-b71e-4a25820f0068"
        }
      }, {
        "item": {
          "reference": "urn:uuid:569808e2-385d-4a80-b8ce-a293daadae90"
        }
      }, {
        "item": {
          "reference": "urn:uuid:7a9192f0-a1d5-4683-ba7e-e64f1d93ff71"
        }
      }, {
        "item": {
          "reference": "urn:uuid:3dcb7fb1-1f52-4ef0-a52b-5e565b1f5da9"
        }
      }, {
        "item": {
          "reference": "urn:uuid:2c2350c0-6168-4ba3-a784-03ce09df983c"
        }
      }, {
        "item": {
          "reference": "urn:uuid:0821a0f8-e224-40f2-9eb3-7cb6fcf0cbc5"
        }
      }, {
        "item": {
          "reference": "urn:uuid:93c7c154-b44d-41fa-ab3d-4d4c3a722856"
        }
      }, {
        "item": {
          "reference": "urn:uuid:f3a14f30-8be4-4271-b0aa-7cde40439dff"
        }
      }, {
        "item": {
          "reference": "urn:uuid:e315603a-f2e9-45ed-a543-ee17d5534548"
        }
      }, {
        "item": {
          "reference": "urn:uuid:7e12cde4-01b4-4717-88ff-7a02910fd490"
        }
      }, {
        "item": {
          "reference": "urn:uuid:416874f1-e7a5-4c33-9c22-2fa2403d1853"
        }
      }, {
        "item": {
          "reference": "urn:uuid:85595f28-fc7c-4c71-a4c7-c2d7daeb2f05"
        }
      }, {
        "item": {
          "reference": "urn:uuid:33455b86-564c-41f6-b253-d2dd02d3dc86"
        }
      }, {
        "item": {
          "reference": "urn:uuid:9a0e4bc5-d25a-4827-9320-00c0a43f1840"
        }
      }, {
        "item": {
          "reference": "urn:uuid:3ab68791-5384-4e1d-9758-d3b1c71fe0b7"
        }
      }, {
        "item": {
          "reference": "urn:uuid:d8e942f7-b5bd-47a1-bacd-d484bb8bbede"
        }
      }, {
        "item": {
          "reference": "urn:uuid:def5844c-76a8-462f-9bd1-956ea3d5a4b8"
        }
      }, {
        "item": {
          "reference": "urn:uuid:0c93a046-ceed-4fca-a6df-1b74d78eae26"
        }
      }, {
        "item": {
          "reference": "urn:uuid:51fe502b-58ac-496d-8c89-d0edf8d95123"
        }
      }, {
        "item": {
          "reference": "urn:uuid:78d89b8f-ef82-4d41-a78f-ee7cd11bef1a"
        }
      }, {
        "item": {
          "reference": "urn:uuid:8c424c39-5c58-4d87-b25b-e3a5eff47cfc"
        }
      }, {
        "item": {
          "reference": "urn:uuid:dcbbbdda-1f50-434d-9011-c9e4e1f690df"
        }
      }, {
        "item": {
          "reference": "urn:uuid:1ee0773d-60cf-4e11-83af-acbfcf75609b"
        }
      }, {
        "item": {
          "reference": "urn:uuid:7e8687fa-f912-41f3-8dbf-05408fc3e135"
        }
      }, {
        "item": {
          "reference": "urn:uuid:4c9e1ae2-6242-4389-b7e8-526ed20b6b1e"
        }
      }, {
        "item": {
          "reference": "urn:uuid:95812048-6c23-4467-8721-c0b67a6fb74b"
        }
      }, {
        "item": {
          "reference": "urn:uuid:2e6798d8-1b6e-4d45-b68b-8be91f2918f5"
        }
      }, {
        "item": {
          "reference": "urn:uuid:b55f1193-ed2d-4be9-b847-8619bdee8db7"
        }
      }, {
        "item": {
          "reference": "urn:uuid:1273a871-b5a7-4e61-8120-6bc313c7dabe"
        }
      }, {
        "item": {
          "reference": "urn:uuid:bd2625d5-cd60-4688-ab50-9a0dcb1f04fd"
        }
      }, {
        "item": {
          "reference": "urn:uuid:90db6d0f-c9e2-4cc7-af51-d9210ec6e280"
        }
      }, {
        "item": {
          "reference": "urn:uuid:365b7cd4-5f3a-406c-b75c-239e1649749e"
        }
      }, {
        "item": {
          "reference": "urn:uuid:636dc409-3485-4143-96c9-90ffc8d14b9a"
        }
      }, {
        "item": {
          "reference": "urn:uuid:f4b8feb6-10a4-4e2e-8fd9-2f0b76a12f10"
        }
      }, {
        "item": {
          "reference": "urn:uuid:34b414f9-5914-4389-bbce-b3ce687cc488"
        }
      }, {
        "item": {
          "reference": "urn:uuid:e7b4b7d7-df78-41a2-97ed-11fc397f9778"
        }
      }, {
        "item": {
          "reference": "urn:uuid:716699a2-29cc-4630-aa52-a262cd295674"
        }
      }, {
        "item": {
          "reference": "urn:uuid:8057d5f4-3b12-4123-a862-34ed141dd6c1"
        }
      }, {
        "item": {
          "reference": "urn:uuid:c0ae79e0-7802-4bde-9f13-2c4f6849eb72"
        }
      }, {
        "item": {
          "reference": "urn:uuid:45730d61-0bdb-415e-a7a4-4ab92c9489fa"
        }
      }, {
        "item": {
          "reference": "urn:uuid:98c03fc6-3c7f-4911-a445-ee0769cd4ed7"
        }
      }, {
        "item": {
          "reference": "urn:uuid:f2514550-9261-4753-b470-060b9c04f71b"
        }
      }, {
        "item": {
          "reference": "urn:uuid:52897cd7-78f7-4f4f-801b-97a9c192b90b"
        }
      }, {
        "item": {
          "reference": "urn:uuid:14e05e09-0656-4f6e-a0cd-126f604c9453"
        }
      }, {
        "item": {
          "reference": "urn:uuid:0cf4628a-a258-49e1-abf7-00a08f02020c"
        }
      }, {
        "item": {
          "reference": "urn:uuid:73c7465a-2c8b-4286-9d37-4fd4f89ede72"
        }
      }, {
        "item": {
          "reference": "urn:uuid:279dcd55-4e97-44d4-bb8a-0c8b83612cd5"
        }
      }, {
        "item": {
          "reference": "urn:uuid:94244b5f-0d43-440a-ac3b-a2a1907a8a92"
        }
      }, {
        "item": {
          "reference": "urn:uuid:34b8fd0c-a39a-4e9c-bc09-ad8c2930162f"
        }
      }, {
        "item": {
          "reference": "urn:uuid:e6ac5074-d480-44ad-ac03-3409bcaee504"
        }
      }, {
        "item": {
          "reference": "urn:uuid:afbc96ea-26bf-43f8-9767-70de7aaf17c2"
        }
      }, {
        "item": {
          "reference": "urn:uuid:5437bb18-023e-4f6b-8f1d-a07ed523a369"
        }
      }, {
        "item": {
          "reference": "urn:uuid:3ca1cee1-f10a-4938-b1a6-a960cf498e99"
        }
      }, {
        "item": {
          "reference": "urn:uuid:6d6054cf-575a-4fef-bde9-aeae1c65907b"
        }
      }, {
        "item": {
          "reference": "urn:uuid:01aa7b59-c920-489d-90ef-9470dc341c03"
        }
      }, {
        "item": {
          "reference": "urn:uuid:09fb384b-2f9c-4af3-aa68-cf93e11a8dc6"
        }
      }, {
        "item": {
          "reference": "urn:uuid:8eb97234-2e81-48ee-8e0c-90f9c91a4418"
        }
      }, {
        "item": {
          "reference": "urn:uuid:4333e0f0-1555-4afe-a982-e3b4916343a4"
        }
      }, {
        "item": {
          "reference": "urn:uuid:587bfe4c-5f55-479b-9a5a-3112cfa32962"
        }
      }, {
        "item": {
          "reference": "urn:uuid:bac135b1-fbac-4204-a9da-09b8dcad583c"
        }
      }, {
        "item": {
          "reference": "urn:uuid:9e4def2e-dd9a-445f-9615-f07fa4e597e8"
        }
      } ]
    }
  } ]
}