{
  "resourceType": "Bundle",
  "identifier": {
    "type": {
      "text": "ClinicalDocument VersionNumber"
    },
    "value": "2"
  },
  "type": "message",
  "entry": [ {
    "fullUrl": "urn:uuid:2B77B3F5-3016-4A6D-821F-152CE420E58D",
    "resource": {
      "resourceType": "MessageHeader",
      "id": "2B77B3F5-3016-4A6D-821F-152CE420E58D",
      "event": {
        "system": "https://fhir.nhs.uk/STU3/CodeSystem/EventType-1",
        "code": "referral-1",
        "display": "Referral"
      },
      "destination": [ {
        "endpoint": "urn:nhs-uk:addressing:ods:EM396"
      } ],
      "timestamp": "2017-01-01T20:00:00.000+00:00",
      "source": {
        "name": "NHS 111 Adaptor",
        "endpoint": "http://localhost:8080/report"
      },
      "reason": {
        "coding": [ {
          "system": "urn:nhs-itk:ns:201005:interaction",
          "code": "urn:nhs-itk:interaction:primaryEmergencyDepartmentRecipientNHS111CDADocument-v2-0"
        } ]
      }
    }
  }, {
    "fullUrl": "urn:uuid:ecce94a7-14da-403a-beaf-a60d26a11916",
    "resource": {
      "resourceType": "Encounter",
      "id": "ecce94a7-14da-403a-beaf-a60d26a11916",
      "identifier": [ {
        "system": "2.16.840.1.113883.2.1.3.2.4.18.49",
        "value": "LOC665"
      }, {
        "system": "2.16.840.1.113883.2.1.3.2.4.18.34",
        "value": "CASEREF1234"
      }, {
        "system": "2.16.840.1.113883.2.1.3.2.4.18.35",
        "value": "CASEID123"
      } ],
      "status": "finished",
      "type": [ {
        "text": "111 Encounter Referral"
      } ],
      "subject": {
        "reference": "urn:uuid:31480fe2-365e-4c16-a3be-8fe1f950b345"
      },
      "participant": [ {
        "type": [ {
          "text": "CALLBCK"
        } ],
        "individual": {
          "reference": "urn:uuid:981a8544-6e80-4732-8f20-3be86aeb5096"
        }
      }, {
        "type": [ {
          "coding": [ {
            "system": "http://hl7.org/fhir/ValueSet/encounter-participant-type",
            "code": "PPRF",
            "display": "Author"
          } ]
        } ],
        "individual": {
          "reference": "urn:uuid:524e23b6-aafb-4780-9121-65d42a6a6f8e"
        }
      }, {
        "type": [ {
          "text": "Informant"
        } ],
        "individual": {
          "reference": "urn:uuid:c5ac8ca2-feef-47ef-bb3a-14f14f4446ed"
        }
      }, {
        "type": [ {
          "coding": [ {
            "system": "http://hl7.org/fhir/ValueSet/encounter-participant-type",
            "code": "ATND",
            "display": "Responsible Party"
          } ]
        } ],
        "individual": {
          "reference": "urn:uuid:18263598-cb8b-4d65-ad6a-a21e9dbc1d7d"
        }
      } ],
      "appointment": {
        "reference": "urn:uuid:0901a9d8-24b4-44c8-9467-7a4c5181f530"
      },
      "period": {
        "start": "2017-01-01T20:00:00+00:00"
      },
      "location": [ {
        "location": {
          "reference": "urn:uuid:581e4633-a518-4eba-bda5-b3a80369aa37"
        },
        "status": "active"
      }, {
        "location": {
          "reference": "urn:uuid:db7c911d-7a48-4c87-9f71-9b1dde4b2bbc"
        },
        "status": "completed"
      } ],
      "serviceProvider": {
        "reference": "urn:uuid:033bf4c2-5bb7-497c-b74a-53df6a2c34ea"
      }
    }
  }, {
    "fullUrl": "urn:uuid:033bf4c2-5bb7-497c-b74a-53df6a2c34ea",
    "resource": {
      "resourceType": "Organization",
      "id": "033bf4c2-5bb7-497c-b74a-53df6a2c34ea",
      "active": true,
      "type": [ {
        "text": "CST"
      } ],
      "name": "Medway NHS Foundation Trust"
    }
  }, {
    "fullUrl": "urn:uuid:981a8544-6e80-4732-8f20-3be86aeb5096",
    "resource": {
      "resourceType": "Practitioner",
      "id": "981a8544-6e80-4732-8f20-3be86aeb5096",
      "active": true,
      "name": [ {
        "text": "Call Centre Manager"
      } ],
      "telecom": [ {
        "system": "phone",
        "value": "tel:08001111111"
      } ]
    }
  }, {
    "fullUrl": "urn:uuid:524e23b6-aafb-4780-9121-65d42a6a6f8e",
    "resource": {
      "resourceType": "Practitioner",
      "id": "524e23b6-aafb-4780-9121-65d42a6a6f8e",
      "active": true,
      "name": [ {
        "use": "official",
        "family": "Jones",
        "given": [ "Mary" ]
      } ]
    }
  }, {
    "fullUrl": "urn:uuid:c5ac8ca2-feef-47ef-bb3a-14f14f4446ed",
    "resource": {
      "resourceType": "RelatedPerson",
      "id": "c5ac8ca2-feef-47ef-bb3a-14f14f4446ed",
      "active": true,
      "patient": {
        "reference": "urn:uuid:31480fe2-365e-4c16-a3be-8fe1f950b345"
      },
      "relationship": {
        "coding": [ {
          "system": "2.16.840.1.113883.2.1.3.2.4.16.45",
          "code": "01",
          "display": "Spouse"
        } ]
      },
      "name": [ {
        "use": "official",
        "family": "Bloggs",
        "given": [ "Helga" ]
      } ],
      "telecom": [ {
        "system": "phone",
        "value": "tel:07886554123",
        "use": "mobile"
      }, {
        "system": "phone",
        "value": "tel:01783678321"
      } ],
      "gender": "unknown",
      "address": [ {
        "use": "home",
        "line": [ "43 Summers Avenue", "Somerset Street" ],
        "city": "Medway",
        "postalCode": "ME5 7TY"
      } ]
    }
  }, {
    "fullUrl": "urn:uuid:18263598-cb8b-4d65-ad6a-a21e9dbc1d7d",
    "resource": {
      "resourceType": "Practitioner",
      "id": "18263598-cb8b-4d65-ad6a-a21e9dbc1d7d",
      "active": true,
      "name": [ {
        "use": "official",
        "family": "Cornwell",
        "given": [ "Dave" ]
      } ]
    }
  }, {
    "fullUrl": "urn:uuid:581e4633-a518-4eba-bda5-b3a80369aa37",
    "resource": {
      "resourceType": "Location",
      "id": "581e4633-a518-4eba-bda5-b3a80369aa37",
      "managingOrganization": {
        "reference": "urn:uuid:2cdd4666-24b1-4e35-af7d-613aac21a414"
      }
    }
  }, {
    "fullUrl": "urn:uuid:2cdd4666-24b1-4e35-af7d-613aac21a414",
    "resource": {
      "resourceType": "Organization",
      "id": "2cdd4666-24b1-4e35-af7d-613aac21a414",
      "identifier": [ {
        "value": "V396F"
      } ],
      "type": [ {
        "text": "GP Practice"
      } ],
      "name": "Medway Medical Practice",
      "telecom": [ {
        "system": "phone",
        "value": "tel:01634111222",
        "use": "work"
      } ],
      "address": [ {
        "use": "work",
        "line": [ "Springer Street" ],
        "city": "Medway",
        "postalCode": "ME5 5TY"
      } ]
    }
  }, {
    "fullUrl": "urn:uuid:db7c911d-7a48-4c87-9f71-9b1dde4b2bbc",
    "resource": {
      "resourceType": "Location",
      "id": "db7c911d-7a48-4c87-9f71-9b1dde4b2bbc",
      "name": "Incident Location",
      "address": {
        "type": "physical",
        "text": "Follow the high street and turn left by Boots",
        "line": [ "2, Brancaster Road" ],
        "city": "Medway",
        "postalCode": "ME5 4LS",
        "country": "GB"
      }
    }
  }, {
    "fullUrl": "urn:uuid:31480fe2-365e-4c16-a3be-8fe1f950b345",
    "resource": {
      "resourceType": "Patient",
      "id": "31480fe2-365e-4c16-a3be-8fe1f950b345",
      "language": "en",
      "identifier": [ {
        "extension": [ {
          "url": "https://fhir.hl7.org.uk/STU3/StructureDefinition/Extension-CareConnect-NHSNumberVerificationStatus-1",
          "valueCodeableConcept": {
            "coding": [ {
              "system": "https://fhir.hl7.org.uk/STU3/StructureDefinition/Extension-CareConnect-NHSNumberVerificationStatus-1",
              "code": "02"
            } ]
          }
        } ],
        "system": "https://fhir.nhs.uk/Id/nhs-number",
        "value": "993254128"
      } ],
      "active": true,
      "name": [ {
        "use": "official",
        "family": "Joe",
        "given": [ "Blogg" ],
        "prefix": [ "Mr" ]
      } ],
      "telecom": [ {
        "system": "phone",
        "value": "tel:01634775667",
        "use": "home"
      }, {
        "system": "phone",
        "value": "tel:01634451628",
        "use": "home"
      }, {
        "system": "email",
        "value": "mailto:Joe.Blogg@emailfree.co.uk",
        "use": "home"
      } ],
      "gender": "male",
      "birthDate": "1989-01-01",
      "address": [ {
        "use": "home",
        "line": [ "17, County Avenue", "Woodtown" ],
        "city": "Medway",
        "postalCode": "ME5 FS3"
      } ],
      "generalPractitioner": [ {
        "reference": "urn:uuid:f7cdafe8-7bfe-4c2c-9d1e-0f5ec6d1ae21"
      } ]
    }
  }, {
    "fullUrl": "urn:uuid:f7cdafe8-7bfe-4c2c-9d1e-0f5ec6d1ae21",
    "resource": {
      "resourceType": "Organization",
      "id": "f7cdafe8-7bfe-4c2c-9d1e-0f5ec6d1ae21",
      "identifier": [ {
        "value": "V396F"
      } ],
      "type": [ {
        "text": "GP Practice"
      } ],
      "name": "Medway Medical Practice",
      "telecom": [ {
        "system": "phone",
        "value": "tel:01634111222",
        "use": "work"
      } ],
      "address": [ {
        "use": "work",
        "line": [ "Springer Street" ],
        "city": "Medway",
        "postalCode": "ME5 5TY"
      } ]
    }
  }, {
    "fullUrl": "urn:uuid:7b65f215-7700-461d-a86b-a6e38d8dc177",
    "resource": {
      "resourceType": "HealthcareService",
      "id": "7b65f215-7700-461d-a86b-a6e38d8dc177",
      "active": true,
      "providedBy": {
        "reference": "urn:uuid:a624fbcf-c0c3-4bf8-82cb-d10f8eab6a5c"
      },
      "location": [ {
        "reference": "urn:uuid:7a012abb-d798-4be7-9de0-3ba446751c0a"
      } ],
      "name": "Thames Medical Practice",
      "telecom": [ {
        "system": "phone",
        "value": "tel:0123476895",
        "use": "work"
      } ]
    }
  }, {
    "fullUrl": "urn:uuid:7a012abb-d798-4be7-9de0-3ba446751c0a",
    "resource": {
      "resourceType": "Location",
      "id": "7a012abb-d798-4be7-9de0-3ba446751c0a",
      "telecom": [ {
        "system": "phone",
        "value": "tel:0123476895",
        "use": "work"
      } ],
      "address": {
        "use": "work",
        "line": [ "Thames Medical Practice", "Hill Street Branch Surgery", "Medway", "Essex" ],
        "postalCode": "ME4 5TT"
      },
      "managingOrganization": {
        "reference": "urn:uuid:a624fbcf-c0c3-4bf8-82cb-d10f8eab6a5c"
      }
    }
  }, {
    "fullUrl": "urn:uuid:a624fbcf-c0c3-4bf8-82cb-d10f8eab6a5c",
    "resource": {
      "resourceType": "Organization",
      "id": "a624fbcf-c0c3-4bf8-82cb-d10f8eab6a5c",
      "identifier": [ {
        "value": "PRA123"
      } ],
      "type": [ {
        "coding": [ {
          "code": "PRCP",
          "display": "Thames Medical Practice"
        } ]
      } ],
      "name": "Thames Medical Practice"
    }
  }, {
    "fullUrl": "urn:uuid:cae74029-2f9b-4c56-9038-7145e2e412b1",
    "resource": {
      "resourceType": "HealthcareService",
      "id": "cae74029-2f9b-4c56-9038-7145e2e412b1",
      "active": true,
      "providedBy": {
        "reference": "urn:uuid:64817aa3-3395-440a-8adb-8254863d74a8"
      },
      "location": [ {
        "reference": "urn:uuid:3cad1458-f5d1-4a4f-934e-309424bae980"
      } ],
      "name": "Medway Kent Out of Hours Clinic"
    }
  }, {
    "fullUrl": "urn:uuid:3cad1458-f5d1-4a4f-934e-309424bae980",
    "resource": {
      "resourceType": "Location",
      "id": "3cad1458-f5d1-4a4f-934e-309424bae980",
      "managingOrganization": {
        "reference": "urn:uuid:64817aa3-3395-440a-8adb-8254863d74a8"
      }
    }
  }, {
    "fullUrl": "urn:uuid:64817aa3-3395-440a-8adb-8254863d74a8",
    "resource": {
      "resourceType": "Organization",
      "id": "64817aa3-3395-440a-8adb-8254863d74a8",
      "identifier": [ {
        "value": "EM396"
      } ],
      "type": [ {
        "coding": [ {
          "code": "PRCP",
          "display": "Medway Kent Out of Hours Clinic"
        } ]
      } ],
      "name": "Medway Kent Out of Hours Clinic"
    }
  }, {
    "fullUrl": "urn:uuid:c415a527-c821-4f30-9388-75ee977013e3",
    "resource": {
      "resourceType": "ReferralRequest",
      "id": "c415a527-c821-4f30-9388-75ee977013e3",
      "status": "active",
      "intent": "plan",
      "priority": "routine",
      "subject": {
        "reference": "urn:uuid:31480fe2-365e-4c16-a3be-8fe1f950b345"
      },
      "context": {
        "reference": "urn:uuid:ecce94a7-14da-403a-beaf-a60d26a11916"
      },
      "occurrencePeriod": {
        "start": "2021-10-01T07:33:57+00:00",
        "end": "2021-10-01T08:33:57+00:00"
      },
      "authoredOn": "2019-01-01T20:00:00+00:00",
      "requester": {
        "agent": {
          "reference": "urn:uuid:b910eece-7508-40d0-a7a4-2c26dafbc452"
        },
        "onBehalfOf": {
          "reference": "urn:uuid:033bf4c2-5bb7-497c-b74a-53df6a2c34ea"
        }
      },
      "recipient": [ {
        "reference": "urn:uuid:62076cd9-05bf-483b-915d-46290fd7561d"
      }, {
        "reference": "urn:uuid:7b65f215-7700-461d-a86b-a6e38d8dc177"
      }, {
        "reference": "urn:uuid:cae74029-2f9b-4c56-9038-7145e2e412b1"
      } ],
      "reasonReference": [ {
        "reference": "urn:uuid:e798381d-8a68-48bc-8f05-341d9772af0d"
      } ],
      "supportingInfo": [ {
        "reference": "urn:uuid:09abc2f6-6fa5-467a-8e2d-2d3d7b3b5c32"
      } ]
    }
  }, {
    "fullUrl": "urn:uuid:09abc2f6-6fa5-467a-8e2d-2d3d7b3b5c32",
    "resource": {
      "resourceType": "ProcedureRequest",
      "id": "09abc2f6-6fa5-467a-8e2d-2d3d7b3b5c32",
      "status": "active",
      "intent": "plan",
      "priority": "routine",
      "doNotPerform": false,
      "code": {
        "coding": [ {
          "system": "2.16.840.1.113883.2.1.3.2.4.17.325",
          "code": "Dx001",
          "display": "Passed onto clinical hub"
        } ]
      },
      "subject": {
        "reference": "urn:uuid:31480fe2-365e-4c16-a3be-8fe1f950b345"
      },
      "occurrencePeriod": {
        "start": "2021-10-01T07:33:57+00:00",
        "end": "2021-10-01T08:33:57+00:00"
      },
      "reasonReference": [ {
        "reference": "urn:uuid:e798381d-8a68-48bc-8f05-341d9772af0d"
      } ]
    }
  }, {
    "fullUrl": "urn:uuid:62076cd9-05bf-483b-915d-46290fd7561d",
    "resource": {
      "resourceType": "Practitioner",
      "id": "62076cd9-05bf-483b-915d-46290fd7561d",
      "active": true,
      "telecom": [ {
        "system": "phone",
        "value": "tel:0123456789"
      } ],
      "address": [ {
        "type": "physical",
        "line": [ "Church Street Walk in Centre", "4 Church Street", "Medway" ],
        "postalCode": "ME8 7TT"
      } ]
    }
  }, {
    "fullUrl": "urn:uuid:3662e610-6282-45a5-9aef-fb7344ee8232",
    "resource": {
      "resourceType": "Composition",
      "id": "3662e610-6282-45a5-9aef-fb7344ee8232",
      "identifier": {
        "use": "usual",
        "value": "411910CF-1A76-4330-98FE-C345DDEE5553"
      },
      "status": "final",
      "type": {
        "coding": [ {
          "system": "http://snomed.info/sct",
          "code": "371531000",
          "display": "Report of clinical encounter (record artifact)"
        } ]
      },
      "subject": {
        "reference": "urn:uuid:31480fe2-365e-4c16-a3be-8fe1f950b345"
      },
      "encounter": {
        "reference": "urn:uuid:ecce94a7-14da-403a-beaf-a60d26a11916"
      },
      "date": "2021-10-01T07:33:57+00:00",
      "author": [ {
        "reference": "urn:uuid:524e23b6-aafb-4780-9121-65d42a6a6f8e"
      } ],
      "title": "111 Report",
      "confidentiality": "V",
      "section": [ {
        "section": [ {
          "title": "Permission to View",
          "text": {
            "status": "generated",
            "div": "<div xmlns=\"http://www.w3.org/1999/xhtml\">&lt;table&gt;\n                                                        &lt;tbody&gt;\n                                                            &lt;tr&gt;\n                                                                &lt;th&gt;Permission to view outcome&lt;/th&gt;\n                                                                &lt;td&gt;Permission to view obtained&lt;/td&gt;\n                                                            &lt;/tr&gt;\n                                                            &lt;tr&gt;\n                                                                &lt;th&gt;Date obtained&lt;/th&gt;\n                                                                &lt;td&gt;01-Jan-2017, 20:00&lt;/td&gt;\n                                                            &lt;/tr&gt;\n                                                            &lt;tr&gt;\n                                                                &lt;th&gt;Date expires&lt;/th&gt;\n                                                                &lt;td&gt;15-Jan-2017, 20:00&lt;/td&gt;\n                                                            &lt;/tr&gt;\n                                                        &lt;/tbody&gt;\n                                                    &lt;/table&gt;</div>"
          }
        }, {
          "title": "Primary Reason for Call",
          "text": {
            "status": "generated",
            "div": "<div xmlns=\"http://www.w3.org/1999/xhtml\">&lt;content&gt;Patient feels dizzy.&lt;/content&gt;</div>"
          },
          "section": [ {
            "title": "SUBSUB2",
            "text": {
              "status": "generated",
              "div": "<div xmlns=\"http://www.w3.org/1999/xhtml\">&lt;content&gt;SUBSUB2&lt;/content&gt;</div>"
            },
            "section": [ {
              "title": "SUBSUB3",
              "text": {
                "status": "generated",
                "div": "<div xmlns=\"http://www.w3.org/1999/xhtml\">&lt;content&gt;SUBSUB3&lt;/content&gt;</div>"
              }
            } ]
          } ]
        }, {
          "title": "Clinical Summary",
          "text": {
            "status": "generated",
            "div": "<div xmlns=\"http://www.w3.org/1999/xhtml\">&lt;content&gt;\n                                                        Patient fels nausea and dizzy after waking up. Lasted 30\n                                                        minutes.\n                                                    &lt;/content&gt;</div>"
          }
        }, {
          "title": "Additional Patient Notes",
          "text": {
            "status": "generated",
            "div": "<div xmlns=\"http://www.w3.org/1999/xhtml\">Additional Patient Notes\n                                                    &lt;br/&gt;\n                                                    Additional Patient Notes abc 01-Feb-2017, 12:00\n                                                    &lt;br/&gt;</div>"
          },
          "section": [ {
            "text": {
              "status": "generated",
              "div": "<div xmlns=\"http://www.w3.org/1999/xhtml\">These are more notes, nested under the top one.</div>"
            }
          } ]
        }, {
          "title": "Disposition Details",
          "text": {
            "status": "generated",
            "div": "<div xmlns=\"http://www.w3.org/1999/xhtml\">&lt;content&gt;Lie down.&lt;/content&gt;</div>"
          }
        }, {
          "title": "Information and advice given",
          "text": {
            "status": "generated",
            "div": "<div xmlns=\"http://www.w3.org/1999/xhtml\">&lt;content&gt;Do not perform any strenuous activities.&lt;/content&gt;</div>"
          }
        }, {
          "title": "Recorded Allergies",
          "text": {
            "status": "generated",
            "div": "<div xmlns=\"http://www.w3.org/1999/xhtml\">&lt;content&gt;No known allergies or adverse reaction.&lt;/content&gt;</div>"
          }
        }, {
          "title": "Triage Report",
          "text": {
            "status": "generated",
            "div": "<div xmlns=\"http://www.w3.org/1999/xhtml\">&lt;content&gt;An injury or other health problem was described.\n                                                        &lt;br/&gt;The individual was described as breathing and conscious.\n                                                        &lt;br/&gt;Loss of at least a mugful of blood in the last 30 minutes\n                                                        was not described.\n                                                        &lt;br/&gt;An illness or other health problem was described. -\n                                                        Dizziness\n                                                        &lt;br/&gt;Fighting for breath was not described.\n                                                        &lt;br/&gt;A heart attack, chest/upper back pain, recent probable\n                                                        stroke, recent fit/seizure or suicide attempt was not described\n                                                        as the main call reason.\n                                                        &lt;br/&gt;Dizziness and nausea was described.\n                                                        &lt;br/&gt;\n                                                    &lt;/content&gt;</div>"
          }
        }, {
          "title": "Prescribed Items",
          "text": {
            "status": "generated",
            "div": "<div xmlns=\"http://www.w3.org/1999/xhtml\">&lt;content&gt;\n                                                        Medications\n                                                    &lt;/content&gt;</div>"
          }
        }, {
          "title": "Appointment Reference",
          "text": {
            "status": "generated",
            "div": "<div xmlns=\"http://www.w3.org/1999/xhtml\">&lt;content&gt;\n                                                        Date/Time: 01 June 2017 14:00\n                                                        Location: CENTRAL LONDON COMMUNITY HEALTHCARE NHS TRUST\n                                                        Psychiatric Community Care Service\n                                                    &lt;/content&gt;</div>"
          }
        } ]
      }, {
        "title": "CarePlan",
        "entry": [ {
          "reference": "urn:uuid:b8f0805c-fb53-44b0-8ad2-87355344d62b"
        } ]
      }, {
        "title": "ReferralRequest",
        "entry": [ {
          "reference": "urn:uuid:c415a527-c821-4f30-9388-75ee977013e3"
        } ]
      }, {
        "title": "QuestionnaireResponse",
        "entry": [ {
          "reference": "urn:uuid:8dee47f7-3f0c-4a81-9535-4b4a812bbd71"
        } ]
      }, {
        "title": "QuestionnaireResponse",
        "entry": [ {
          "reference": "urn:uuid:1d2f40ab-2f6d-4193-9965-6dfe40d09ea4"
        } ]
      }, {
        "title": "QuestionnaireResponse",
        "entry": [ {
          "reference": "urn:uuid:0d10d0e1-6f89-4bf7-a34a-f2a59b5d9eb9"
        } ]
      }, {
        "title": "QuestionnaireResponse",
        "entry": [ {
          "reference": "urn:uuid:9a2fd2dd-cc84-478d-8f84-250ff1ba665a"
        } ]
      }, {
        "title": "QuestionnaireResponse",
        "entry": [ {
          "reference": "urn:uuid:a18c4e1c-dd93-4fbf-8da7-8c183fd2a59f"
        } ]
      }, {
        "title": "QuestionnaireResponse",
        "entry": [ {
          "reference": "urn:uuid:2a9e2e37-4d60-4f6a-a881-db0976458aa6"
        } ]
      }, {
        "title": "QuestionnaireResponse",
        "entry": [ {
          "reference": "urn:uuid:4bcd72bb-9510-4455-a144-b1327128257f"
        } ]
      }, {
        "title": "QuestionnaireResponse",
        "entry": [ {
          "reference": "urn:uuid:920f0d79-297b-42f6-96bc-739006760f76"
        } ]
      }, {
        "title": "QuestionnaireResponse",
        "entry": [ {
          "reference": "urn:uuid:620bac03-430d-4b36-8df3-a8667da86a36"
        } ]
      }, {
        "title": "QuestionnaireResponse",
        "entry": [ {
          "reference": "urn:uuid:8af51af7-9725-43dd-b468-2933c4b21eed"
        } ]
      }, {
        "title": "QuestionnaireResponse",
        "entry": [ {
          "reference": "urn:uuid:25d6a98d-9dfc-4606-bfba-34f4fce7cac0"
        } ]
      }, {
        "title": "QuestionnaireResponse",
        "entry": [ {
          "reference": "urn:uuid:1072599e-a51a-443d-8a2d-b630880a736f"
        } ]
      }, {
        "title": "QuestionnaireResponse",
        "entry": [ {
          "reference": "urn:uuid:dfbf075e-9744-47cb-8c3d-40428871b254"
        } ]
      }, {
        "title": "QuestionnaireResponse",
        "entry": [ {
          "reference": "urn:uuid:d6d0c7bf-0d82-4351-a69e-02f2d887fbb0"
        } ]
      }, {
        "title": "QuestionnaireResponse",
        "entry": [ {
          "reference": "urn:uuid:845d5603-440c-409f-af04-146d7e59e5cb"
        } ]
      }, {
        "title": "QuestionnaireResponse",
        "entry": [ {
          "reference": "urn:uuid:9de899fd-9f75-4f62-9328-e17050c8d897"
        } ]
      }, {
        "title": "QuestionnaireResponse",
        "entry": [ {
          "reference": "urn:uuid:07a0f461-ed88-4659-a6d3-e569eca57a30"
        } ]
      }, {
        "title": "QuestionnaireResponse",
        "entry": [ {
          "reference": "urn:uuid:d02cbe65-2fb8-48bf-b32e-5f9af9ee87c8"
        } ]
      }, {
        "title": "QuestionnaireResponse",
        "entry": [ {
          "reference": "urn:uuid:1a54b1f4-53d9-4a95-843d-747898c1f01c"
        } ]
      }, {
        "title": "QuestionnaireResponse",
        "entry": [ {
          "reference": "urn:uuid:e0d38088-14e5-4a66-98f5-cf89d6a96518"
        } ]
      }, {
        "title": "QuestionnaireResponse",
        "entry": [ {
          "reference": "urn:uuid:8c964536-ce30-40d1-8e29-2af922e0d4ed"
        } ]
      }, {
        "title": "QuestionnaireResponse",
        "entry": [ {
          "reference": "urn:uuid:bae5c1d8-0f50-4fb7-93de-b6fb48f36f3a"
        } ]
      }, {
        "title": "QuestionnaireResponse",
        "entry": [ {
          "reference": "urn:uuid:c4c0d0ec-0342-4562-a0cb-0cfae2c82837"
        } ]
      }, {
        "title": "QuestionnaireResponse",
        "entry": [ {
          "reference": "urn:uuid:e0db93ef-28f0-4bc6-948c-6f30506d9e76"
        } ]
      } ]
    }
  }, {
    "fullUrl": "urn:uuid:b8f0805c-fb53-44b0-8ad2-87355344d62b",
    "resource": {
      "resourceType": "CarePlan",
      "id": "b8f0805c-fb53-44b0-8ad2-87355344d62b",
      "status": "completed",
      "intent": "plan",
      "title": "Information and advice given",
      "description": "Do not perform any strenuous activities.",
      "subject": {
        "reference": "urn:uuid:31480fe2-365e-4c16-a3be-8fe1f950b345"
      },
      "context": {
        "reference": "urn:uuid:ecce94a7-14da-403a-beaf-a60d26a11916"
      },
      "period": {
        "start": "2017-01-01T20:00:00+00:00"
      },
      "author": [ {
        "reference": "urn:uuid:2cdd4666-24b1-4e35-af7d-613aac21a414"
      } ],
      "addresses": [ {
        "reference": "urn:uuid:e798381d-8a68-48bc-8f05-341d9772af0d"
      } ]
    }
  }, {
    "fullUrl": "urn:uuid:c8c50fa2-929e-4923-9ab3-8f15aa622d90",
    "resource": {
      "resourceType": "Consent",
      "id": "c8c50fa2-929e-4923-9ab3-8f15aa622d90",
      "text": {
        "status": "generated",
        "div": "<div xmlns=\"http://www.w3.org/1999/xhtml\">\n                                                    <table>\n                                                        <tbody>\n                                                            <tr>\n                                                                <th>Permission to view outcome</th>\n                                                                <td>Permission to view obtained</td>\n                                                            </tr>\n                                                            <tr>\n                                                                <th>Date obtained</th>\n                                                                <td>01-Jan-2017, 20:00</td>\n                                                            </tr>\n                                                            <tr>\n                                                                <th>Date expires</th>\n                                                                <td>15-Jan-2017, 20:00</td>\n                                                            </tr>\n                                                        </tbody>\n                                                    </table>\n                                                </div>"
      },
      "identifier": {
        "use": "usual",
        "value": "411910CF-1A76-4330-98FE-C345DDEE5553"
      },
      "status": "active",
      "patient": {
        "reference": "urn:uuid:31480fe2-365e-4c16-a3be-8fe1f950b345"
      },
      "period": {
        "start": "2017-01-01T20:00:00+00:00"
      },
      "consentingParty": [ {
        "reference": "urn:uuid:31480fe2-365e-4c16-a3be-8fe1f950b345"
      } ],
      "action": [ {
        "coding": [ {
          "system": "http://snomed.info/sct",
          "code": "425691002",
          "display": "Consent given for electronic record sharing"
        } ],
        "text": "Consent given for electronic record sharing"
      } ],
      "organization": [ {
        "reference": "urn:uuid:033bf4c2-5bb7-497c-b74a-53df6a2c34ea"
      } ],
      "sourceIdentifier": {
        "value": "41D9F90F-6DB7-4939-BEF5-F8D75D79ECDD"
      },
      "policyRule": "http://hl7.org/fhir/ConsentPolicy/opt-out",
      "dataPeriod": {
        "start": "2011-05-19T20:00:00+00:00",
        "end": "2011-05-26T20:00:00+00:00"
      },
      "data": [ {
        "meaning": "related",
        "reference": {
          "reference": "urn:uuid:ecce94a7-14da-403a-beaf-a60d26a11916"
        }
      } ]
    }
  }, {
    "fullUrl": "urn:uuid:e798381d-8a68-48bc-8f05-341d9772af0d",
    "resource": {
      "resourceType": "Condition",
      "id": "e798381d-8a68-48bc-8f05-341d9772af0d",
      "clinicalStatus": "active",
      "verificationStatus": "unknown",
      "code": {
        "coding": [ {
          "system": "22298006",
          "code": "2.16.840.1.113883.2.1.3.2.4.15",
          "display": "Myocardial infarction"
        } ]
      },
      "subject": {
        "reference": "urn:uuid:31480fe2-365e-4c16-a3be-8fe1f950b345"
      },
      "context": {
        "reference": "urn:uuid:ecce94a7-14da-403a-beaf-a60d26a11916"
      },
      "assertedDate": "2017-06-01T14:00:00+00:00",
      "evidence": [ {
        "detail": [ {
          "reference": "urn:uuid:8dee47f7-3f0c-4a81-9535-4b4a812bbd71"
        } ]
      }, {
        "detail": [ {
          "reference": "urn:uuid:1d2f40ab-2f6d-4193-9965-6dfe40d09ea4"
        } ]
      }, {
        "detail": [ {
          "reference": "urn:uuid:0d10d0e1-6f89-4bf7-a34a-f2a59b5d9eb9"
        } ]
      }, {
        "detail": [ {
          "reference": "urn:uuid:9a2fd2dd-cc84-478d-8f84-250ff1ba665a"
        } ]
      }, {
        "detail": [ {
          "reference": "urn:uuid:a18c4e1c-dd93-4fbf-8da7-8c183fd2a59f"
        } ]
      }, {
        "detail": [ {
          "reference": "urn:uuid:2a9e2e37-4d60-4f6a-a881-db0976458aa6"
        } ]
      }, {
        "detail": [ {
          "reference": "urn:uuid:4bcd72bb-9510-4455-a144-b1327128257f"
        } ]
      }, {
        "detail": [ {
          "reference": "urn:uuid:920f0d79-297b-42f6-96bc-739006760f76"
        } ]
      }, {
        "detail": [ {
          "reference": "urn:uuid:620bac03-430d-4b36-8df3-a8667da86a36"
        } ]
      }, {
        "detail": [ {
          "reference": "urn:uuid:8af51af7-9725-43dd-b468-2933c4b21eed"
        } ]
      }, {
        "detail": [ {
          "reference": "urn:uuid:25d6a98d-9dfc-4606-bfba-34f4fce7cac0"
        } ]
      }, {
        "detail": [ {
          "reference": "urn:uuid:1072599e-a51a-443d-8a2d-b630880a736f"
        } ]
      }, {
        "detail": [ {
          "reference": "urn:uuid:dfbf075e-9744-47cb-8c3d-40428871b254"
        } ]
      }, {
        "detail": [ {
          "reference": "urn:uuid:d6d0c7bf-0d82-4351-a69e-02f2d887fbb0"
        } ]
      }, {
        "detail": [ {
          "reference": "urn:uuid:845d5603-440c-409f-af04-146d7e59e5cb"
        } ]
      }, {
        "detail": [ {
          "reference": "urn:uuid:9de899fd-9f75-4f62-9328-e17050c8d897"
        } ]
      }, {
        "detail": [ {
          "reference": "urn:uuid:07a0f461-ed88-4659-a6d3-e569eca57a30"
        } ]
      }, {
        "detail": [ {
          "reference": "urn:uuid:d02cbe65-2fb8-48bf-b32e-5f9af9ee87c8"
        } ]
      }, {
        "detail": [ {
          "reference": "urn:uuid:1a54b1f4-53d9-4a95-843d-747898c1f01c"
        } ]
      }, {
        "detail": [ {
          "reference": "urn:uuid:e0d38088-14e5-4a66-98f5-cf89d6a96518"
        } ]
      }, {
        "detail": [ {
          "reference": "urn:uuid:8c964536-ce30-40d1-8e29-2af922e0d4ed"
        } ]
      }, {
        "detail": [ {
          "reference": "urn:uuid:bae5c1d8-0f50-4fb7-93de-b6fb48f36f3a"
        } ]
      }, {
        "detail": [ {
          "reference": "urn:uuid:c4c0d0ec-0342-4562-a0cb-0cfae2c82837"
        } ]
      }, {
        "detail": [ {
          "reference": "urn:uuid:e0db93ef-28f0-4bc6-948c-6f30506d9e76"
        } ]
      } ]
    }
  }, {
    "fullUrl": "urn:uuid:8dee47f7-3f0c-4a81-9535-4b4a812bbd71",
    "resource": {
      "resourceType": "QuestionnaireResponse",
      "id": "8dee47f7-3f0c-4a81-9535-4b4a812bbd71",
      "identifier": {
        "value": "8067b9b2-e604-4414-b56f-8e3cc4de4b1b"
      },
      "questionnaire": {
        "reference": "urn:uuid:2ed18f33-48ea-4592-81bb-24f88bba4b41"
      },
      "status": "completed",
      "subject": {
        "reference": "urn:uuid:31480fe2-365e-4c16-a3be-8fe1f950b345"
      },
      "context": {
        "reference": "urn:uuid:ecce94a7-14da-403a-beaf-a60d26a11916"
      },
      "authored": "2011-02-17T17:31:14+00:00",
      "item": [ {
        "linkId": "N/A"
      } ]
    }
  }, {
    "fullUrl": "urn:uuid:2ed18f33-48ea-4592-81bb-24f88bba4b41",
    "resource": {
      "resourceType": "Questionnaire",
      "id": "2ed18f33-48ea-4592-81bb-24f88bba4b41",
      "identifier": [ {
        "value": "8067b9b2-e604-4414-b56f-8e3cc4de4b1b"
      } ],
      "version": "2011-02-17T17:31:14.313Z",
      "status": "active",
      "experimental": false,
      "date": "2011-02-17T17:31:14+00:00",
      "publisher": "User ID: '3137' User name: 'redacted' User skill set: 'T1'",
      "lastReviewDate": "2011-02-17",
      "jurisdiction": [ {
        "text": "England"
      } ],
      "contact": [ {
        "telecom": [ {
          "system": "phone",
          "value": "redacted"
        } ]
      } ],
      "subjectType": [ "Patient" ],
      "item": [ {
        "linkId": "8067b9b2-e604-4414-b56f-8e3cc4de4b1b",
        "prefix": "0",
        "type": "choice",
        "required": true,
        "repeats": false,
        "option": [ {
          "valueString": ", Selected: false"
        } ]
      } ]
    }
  }, {
    "fullUrl": "urn:uuid:1d2f40ab-2f6d-4193-9965-6dfe40d09ea4",
    "resource": {
      "resourceType": "QuestionnaireResponse",
      "id": "1d2f40ab-2f6d-4193-9965-6dfe40d09ea4",
      "identifier": {
        "value": "8067b9b2-e604-4414-b56f-8e3cc4de4b1b"
      },
      "questionnaire": {
        "reference": "urn:uuid:73bd4c69-a912-4941-aca6-425b4e7223d1"
      },
      "status": "completed",
      "subject": {
        "reference": "urn:uuid:31480fe2-365e-4c16-a3be-8fe1f950b345"
      },
      "context": {
        "reference": "urn:uuid:ecce94a7-14da-403a-beaf-a60d26a11916"
      },
      "authored": "2011-02-17T17:31:14+00:00",
      "item": [ {
        "linkId": "N/A"
      } ]
    }
  }, {
    "fullUrl": "urn:uuid:73bd4c69-a912-4941-aca6-425b4e7223d1",
    "resource": {
      "resourceType": "Questionnaire",
      "id": "73bd4c69-a912-4941-aca6-425b4e7223d1",
      "identifier": [ {
        "value": "8067b9b2-e604-4414-b56f-8e3cc4de4b1b"
      } ],
      "version": "2011-02-17T17:31:14.313Z",
      "status": "active",
      "experimental": false,
      "date": "2011-02-17T17:31:14+00:00",
      "publisher": "User ID: '3137' User name: 'redacted' User skill set: 'T1'",
      "lastReviewDate": "2011-02-17",
      "jurisdiction": [ {
        "text": "England"
      } ],
      "contact": [ {
        "telecom": [ {
          "system": "phone",
          "value": "redacted"
        } ]
      } ],
      "subjectType": [ "Patient" ],
      "item": [ {
        "linkId": "8067b9b2-e604-4414-b56f-8e3cc4de4b1b",
        "prefix": "0",
        "type": "choice",
        "required": true,
        "repeats": false,
        "option": [ {
          "valueString": ", Selected: false"
        } ]
      } ]
    }
  }, {
    "fullUrl": "urn:uuid:0d10d0e1-6f89-4bf7-a34a-f2a59b5d9eb9",
    "resource": {
      "resourceType": "QuestionnaireResponse",
      "id": "0d10d0e1-6f89-4bf7-a34a-f2a59b5d9eb9",
      "identifier": {
        "value": "8067b9b2-e604-4414-b56f-8e3cc4de4b1b"
      },
      "questionnaire": {
        "reference": "urn:uuid:5b8dd527-88ab-4d93-8c6d-40ba2192416a"
      },
      "status": "completed",
      "subject": {
        "reference": "urn:uuid:31480fe2-365e-4c16-a3be-8fe1f950b345"
      },
      "context": {
        "reference": "urn:uuid:ecce94a7-14da-403a-beaf-a60d26a11916"
      },
      "authored": "2011-02-17T17:31:14+00:00",
      "item": [ {
        "linkId": "Tx220109",
        "text": "What is the reason for the call?",
        "answer": [ {
          "valueString": "an injury or other health problem"
        } ]
      } ]
    }
  }, {
    "fullUrl": "urn:uuid:5b8dd527-88ab-4d93-8c6d-40ba2192416a",
    "resource": {
      "resourceType": "Questionnaire",
      "id": "5b8dd527-88ab-4d93-8c6d-40ba2192416a",
      "identifier": [ {
        "value": "8067b9b2-e604-4414-b56f-8e3cc4de4b1b"
      } ],
      "version": "2011-02-17T17:31:14.313Z",
      "status": "active",
      "experimental": false,
      "date": "2011-02-17T17:31:14+00:00",
      "publisher": "User ID: '3137' User name: 'redacted' User skill set: 'T1'",
      "lastReviewDate": "2011-02-17",
      "jurisdiction": [ {
        "text": "England"
      } ],
      "contact": [ {
        "telecom": [ {
          "system": "phone",
          "value": "redacted"
        } ]
      } ],
      "subjectType": [ "Patient" ],
      "item": [ {
        "linkId": "8067b9b2-e604-4414-b56f-8e3cc4de4b1b",
        "prefix": "5",
        "text": "What is the reason for the call?",
        "type": "choice",
        "required": true,
        "repeats": false,
        "option": [ {
          "valueString": "an injury or other health problem, Selected: true"
        }, {
          "valueString": "a need to access another healthcare provider, Selected: false"
        }, {
          "valueString": "a healthcare professional requesting contact with another clinician, Selected: false"
        }, {
          "valueString": "a report of results or tests, Selected: false"
        }, {
          "valueString": "more, Selected: false"
        } ]
      } ]
    }
  }, {
    "fullUrl": "urn:uuid:9a2fd2dd-cc84-478d-8f84-250ff1ba665a",
    "resource": {
      "resourceType": "QuestionnaireResponse",
      "id": "9a2fd2dd-cc84-478d-8f84-250ff1ba665a",
      "identifier": {
        "value": "8067b9b2-e604-4414-b56f-8e3cc4de4b1b"
      },
      "questionnaire": {
        "reference": "urn:uuid:2601a3ab-50f3-479f-bbff-20174b543ac0"
      },
      "status": "completed",
      "subject": {
        "reference": "urn:uuid:31480fe2-365e-4c16-a3be-8fe1f950b345"
      },
      "context": {
        "reference": "urn:uuid:ecce94a7-14da-403a-beaf-a60d26a11916"
      },
      "authored": "2011-02-17T17:31:14+00:00",
      "item": [ {
        "linkId": "Tx140118",
        "text": "Has the baby just been born?",
        "answer": [ {
          "valueString": "no"
        } ]
      } ]
    }
  }, {
    "fullUrl": "urn:uuid:2601a3ab-50f3-479f-bbff-20174b543ac0",
    "resource": {
      "resourceType": "Questionnaire",
      "id": "2601a3ab-50f3-479f-bbff-20174b543ac0",
      "identifier": [ {
        "value": "8067b9b2-e604-4414-b56f-8e3cc4de4b1b"
      } ],
      "version": "2011-02-17T17:31:14.313Z",
      "status": "active",
      "experimental": false,
      "date": "2011-02-17T17:31:14+00:00",
      "publisher": "User ID: '3137' User name: 'redacted' User skill set: 'T1'",
      "lastReviewDate": "2011-02-17",
      "jurisdiction": [ {
        "text": "England"
      } ],
      "contact": [ {
        "telecom": [ {
          "system": "phone",
          "value": "redacted"
        } ]
      } ],
      "subjectType": [ "Patient" ],
      "item": [ {
        "linkId": "8067b9b2-e604-4414-b56f-8e3cc4de4b1b",
        "prefix": "35",
        "text": "Has the baby just been born?",
        "type": "choice",
        "required": true,
        "repeats": false,
        "option": [ {
          "valueString": "yes, Selected: false"
        }, {
          "valueString": "not sure, Selected: false"
        }, {
          "valueString": "no, Selected: true"
        } ]
      } ]
    }
  }, {
    "fullUrl": "urn:uuid:a18c4e1c-dd93-4fbf-8da7-8c183fd2a59f",
    "resource": {
      "resourceType": "QuestionnaireResponse",
      "id": "a18c4e1c-dd93-4fbf-8da7-8c183fd2a59f",
      "identifier": {
        "value": "8067b9b2-e604-4414-b56f-8e3cc4de4b1b"
      },
      "questionnaire": {
        "reference": "urn:uuid:8eec9bff-dccd-4b02-900b-eb41d16b991e"
      },
      "status": "completed",
      "subject": {
        "reference": "urn:uuid:31480fe2-365e-4c16-a3be-8fe1f950b345"
      },
      "context": {
        "reference": "urn:uuid:ecce94a7-14da-403a-beaf-a60d26a11916"
      },
      "authored": "2011-02-17T17:31:14+00:00",
      "item": [ {
        "linkId": "Tx220110",
        "text": "Is he breathing and conscious?",
        "answer": [ {
          "valueString": "breathing AND conscious"
        } ]
      } ]
    }
  }, {
    "fullUrl": "urn:uuid:8eec9bff-dccd-4b02-900b-eb41d16b991e",
    "resource": {
      "resourceType": "Questionnaire",
      "id": "8eec9bff-dccd-4b02-900b-eb41d16b991e",
      "identifier": [ {
        "value": "8067b9b2-e604-4414-b56f-8e3cc4de4b1b"
      } ],
      "version": "2011-02-17T17:31:14.313Z",
      "status": "active",
      "experimental": false,
      "date": "2011-02-17T17:31:14+00:00",
      "publisher": "User ID: '3137' User name: 'redacted' User skill set: 'T1'",
      "lastReviewDate": "2011-02-17",
      "jurisdiction": [ {
        "text": "England"
      } ],
      "contact": [ {
        "telecom": [ {
          "system": "phone",
          "value": "redacted"
        } ]
      } ],
      "subjectType": [ "Patient" ],
      "item": [ {
        "linkId": "8067b9b2-e604-4414-b56f-8e3cc4de4b1b",
        "prefix": "40",
        "text": "Is he breathing and conscious?",
        "type": "choice",
        "required": true,
        "repeats": false,
        "option": [ {
          "valueString": "breathing AND conscious, Selected: true"
        }, {
          "valueString": "breathing but NOT conscious (includes current fitting), Selected: false"
        }, {
          "valueString": "NOT breathing, Selected: false"
        }, {
          "valueString": "choking now, Selected: false"
        } ]
      } ]
    }
  }, {
    "fullUrl": "urn:uuid:2a9e2e37-4d60-4f6a-a881-db0976458aa6",
    "resource": {
      "resourceType": "QuestionnaireResponse",
      "id": "2a9e2e37-4d60-4f6a-a881-db0976458aa6",
      "identifier": {
        "value": "8067b9b2-e604-4414-b56f-8e3cc4de4b1b"
      },
      "questionnaire": {
        "reference": "urn:uuid:1441eea3-9261-4aa6-bb00-6cef2900a386"
      },
      "status": "completed",
      "subject": {
        "reference": "urn:uuid:31480fe2-365e-4c16-a3be-8fe1f950b345"
      },
      "context": {
        "reference": "urn:uuid:ecce94a7-14da-403a-beaf-a60d26a11916"
      },
      "authored": "2011-02-17T17:31:14+00:00",
      "item": [ {
        "linkId": "Tx220285",
        "text": "Has he been bleeding very heavily IN THE LAST HOUR?",
        "answer": [ {
          "valueString": "no"
        } ]
      } ]
    }
  }, {
    "fullUrl": "urn:uuid:1441eea3-9261-4aa6-bb00-6cef2900a386",
    "resource": {
      "resourceType": "Questionnaire",
      "id": "1441eea3-9261-4aa6-bb00-6cef2900a386",
      "identifier": [ {
        "value": "8067b9b2-e604-4414-b56f-8e3cc4de4b1b"
      } ],
      "version": "2011-02-17T17:31:14.313Z",
      "status": "active",
      "experimental": false,
      "date": "2011-02-17T17:31:14+00:00",
      "publisher": "User ID: '3137' User name: 'redacted' User skill set: 'T1'",
      "lastReviewDate": "2011-02-17",
      "jurisdiction": [ {
        "text": "England"
      } ],
      "contact": [ {
        "telecom": [ {
          "system": "phone",
          "value": "redacted"
        } ]
      } ],
      "subjectType": [ "Patient" ],
      "item": [ {
        "linkId": "8067b9b2-e604-4414-b56f-8e3cc4de4b1b",
        "prefix": "60",
        "text": "Has he been bleeding very heavily IN THE LAST HOUR?",
        "type": "choice",
        "required": true,
        "repeats": false,
        "option": [ {
          "valueString": "blood spurting from a wound, Selected: false"
        }, {
          "valueString": "an egg cupful or more of red blood from a body opening, Selected: false"
        }, {
          "valueString": "an egg cupful or more from a wound, Selected: false"
        }, {
          "valueString": "not sure, Selected: false"
        }, {
          "valueString": "no, Selected: true"
        } ]
      } ]
    }
  }, {
    "fullUrl": "urn:uuid:4bcd72bb-9510-4455-a144-b1327128257f",
    "resource": {
      "resourceType": "QuestionnaireResponse",
      "id": "4bcd72bb-9510-4455-a144-b1327128257f",
      "identifier": {
        "value": "8067b9b2-e604-4414-b56f-8e3cc4de4b1b"
      },
      "questionnaire": {
        "reference": "urn:uuid:e45e340a-281a-498f-846d-3b333950ca40"
      },
      "status": "completed",
      "subject": {
        "reference": "urn:uuid:31480fe2-365e-4c16-a3be-8fe1f950b345"
      },
      "context": {
        "reference": "urn:uuid:ecce94a7-14da-403a-beaf-a60d26a11916"
      },
      "authored": "2011-02-17T17:31:14+00:00",
      "item": [ {
        "linkId": "N/A",
        "text": "SocialConcernsExcluded",
        "answer": [ {
          "valueString": "*"
        } ]
      } ]
    }
  }, {
    "fullUrl": "urn:uuid:e45e340a-281a-498f-846d-3b333950ca40",
    "resource": {
      "resourceType": "Questionnaire",
      "id": "e45e340a-281a-498f-846d-3b333950ca40",
      "identifier": [ {
        "value": "8067b9b2-e604-4414-b56f-8e3cc4de4b1b"
      } ],
      "version": "2011-02-17T17:31:14.313Z",
      "status": "active",
      "experimental": false,
      "date": "2011-02-17T17:31:14+00:00",
      "publisher": "User ID: '3137' User name: 'redacted' User skill set: 'T1'",
      "lastReviewDate": "2011-02-17",
      "jurisdiction": [ {
        "text": "England"
      } ],
      "contact": [ {
        "telecom": [ {
          "system": "phone",
          "value": "redacted"
        } ]
      } ],
      "subjectType": [ "Patient" ],
      "item": [ {
        "linkId": "8067b9b2-e604-4414-b56f-8e3cc4de4b1b",
        "prefix": "2050",
        "text": "SocialConcernsExcluded",
        "type": "choice",
        "required": true,
        "repeats": false,
        "option": [ {
          "valueString": "==\"present\", Selected: false"
        }, {
          "valueString": "*, Selected: true"
        } ]
      } ]
    }
  }, {
    "fullUrl": "urn:uuid:920f0d79-297b-42f6-96bc-739006760f76",
    "resource": {
      "resourceType": "QuestionnaireResponse",
      "id": "920f0d79-297b-42f6-96bc-739006760f76",
      "identifier": {
        "value": "8067b9b2-e604-4414-b56f-8e3cc4de4b1b"
      },
      "questionnaire": {
        "reference": "urn:uuid:ae003c15-b8d4-4147-860f-f16872df69df"
      },
      "status": "completed",
      "subject": {
        "reference": "urn:uuid:31480fe2-365e-4c16-a3be-8fe1f950b345"
      },
      "context": {
        "reference": "urn:uuid:ecce94a7-14da-403a-beaf-a60d26a11916"
      },
      "authored": "2011-02-17T17:31:14+00:00",
      "item": [ {
        "linkId": "Tx140159",
        "text": "What is the reason for ending the assessment?",
        "answer": [ {
          "valueString": "transfer to a clinician"
        } ]
      } ]
    }
  }, {
    "fullUrl": "urn:uuid:ae003c15-b8d4-4147-860f-f16872df69df",
    "resource": {
      "resourceType": "Questionnaire",
      "id": "ae003c15-b8d4-4147-860f-f16872df69df",
      "identifier": [ {
        "value": "8067b9b2-e604-4414-b56f-8e3cc4de4b1b"
      } ],
      "version": "2011-02-17T17:31:14.313Z",
      "status": "active",
      "experimental": false,
      "date": "2011-02-17T17:31:14+00:00",
      "publisher": "User ID: '3137' User name: 'redacted' User skill set: 'T1'",
      "lastReviewDate": "2011-02-17",
      "jurisdiction": [ {
        "text": "England"
      } ],
      "contact": [ {
        "telecom": [ {
          "system": "phone",
          "value": "redacted"
        } ]
      } ],
      "subjectType": [ "Patient" ],
      "item": [ {
        "linkId": "8067b9b2-e604-4414-b56f-8e3cc4de4b1b",
        "prefix": "0",
        "text": "What is the reason for ending the assessment?",
        "type": "choice",
        "required": true,
        "repeats": false,
        "option": [ {
          "valueString": "the phone line went dead, Selected: false"
        }, {
          "valueString": "the caller terminated the call (specify), Selected: false"
        }, {
          "valueString": "I terminated the call (specify), Selected: false"
        }, {
          "valueString": "triage not possible, Selected: false"
        }, {
          "valueString": "transfer to a clinician, Selected: true"
        } ]
      } ]
    }
  }, {
    "fullUrl": "urn:uuid:620bac03-430d-4b36-8df3-a8667da86a36",
    "resource": {
      "resourceType": "QuestionnaireResponse",
      "id": "620bac03-430d-4b36-8df3-a8667da86a36",
      "identifier": {
        "value": "8067b9b2-e604-4414-b56f-8e3cc4de4b1b"
      },
      "questionnaire": {
        "reference": "urn:uuid:70dc6542-9a42-4e9d-9605-1fcf86c505c6"
      },
      "status": "completed",
      "subject": {
        "reference": "urn:uuid:31480fe2-365e-4c16-a3be-8fe1f950b345"
      },
      "context": {
        "reference": "urn:uuid:ecce94a7-14da-403a-beaf-a60d26a11916"
      },
      "authored": "2011-02-17T17:31:14+00:00",
      "item": [ {
        "linkId": "Tx220408",
        "text": "WHAT IS THE REASON FOR TRANSFER TO A CLINICIAN?",
        "answer": [ {
          "valueString": "other complex call (specify)"
        } ]
      } ]
    }
  }, {
    "fullUrl": "urn:uuid:70dc6542-9a42-4e9d-9605-1fcf86c505c6",
    "resource": {
      "resourceType": "Questionnaire",
      "id": "70dc6542-9a42-4e9d-9605-1fcf86c505c6",
      "identifier": [ {
        "value": "8067b9b2-e604-4414-b56f-8e3cc4de4b1b"
      } ],
      "version": "2011-02-17T17:31:14.313Z",
      "status": "active",
      "experimental": false,
      "date": "2011-02-17T17:31:14+00:00",
      "publisher": "User ID: '3137' User name: 'redacted' User skill set: 'T1'",
      "lastReviewDate": "2011-02-17",
      "jurisdiction": [ {
        "text": "England"
      } ],
      "contact": [ {
        "telecom": [ {
          "system": "phone",
          "value": "redacted"
        } ]
      } ],
      "subjectType": [ "Patient" ],
      "item": [ {
        "linkId": "8067b9b2-e604-4414-b56f-8e3cc4de4b1b",
        "prefix": "50",
        "text": "WHAT IS THE REASON FOR TRANSFER TO A CLINICIAN?",
        "type": "choice",
        "required": true,
        "repeats": false,
        "option": [ {
          "valueString": "caller refuses disposition, Selected: false"
        }, {
          "valueString": "multiple unrelated symptoms, Selected: false"
        }, {
          "valueString": "difficulty obtaining adequate information, Selected: false"
        }, {
          "valueString": "medication or medical procedure enquiry, Selected: false"
        }, {
          "valueString": "declared medical history (details not required), Selected: false"
        }, {
          "valueString": "other complex call (specify), Selected: true"
        } ]
      } ]
    }
  }, {
    "fullUrl": "urn:uuid:8af51af7-9725-43dd-b468-2933c4b21eed",
    "resource": {
      "resourceType": "QuestionnaireResponse",
      "id": "8af51af7-9725-43dd-b468-2933c4b21eed",
      "identifier": {
        "value": "8067b9b2-e604-4414-b56f-8e3cc4de4b1b"
      },
      "questionnaire": {
        "reference": "urn:uuid:31774590-f66f-4ec9-889f-a7894f4745cb"
      },
      "status": "completed",
      "subject": {
        "reference": "urn:uuid:31480fe2-365e-4c16-a3be-8fe1f950b345"
      },
      "context": {
        "reference": "urn:uuid:ecce94a7-14da-403a-beaf-a60d26a11916"
      },
      "authored": "2011-02-17T17:31:14+00:00",
      "item": [ {
        "linkId": "N/A",
        "text": "Speak to Clinician from our Service immediately"
      } ]
    }
  }, {
    "fullUrl": "urn:uuid:31774590-f66f-4ec9-889f-a7894f4745cb",
    "resource": {
      "resourceType": "Questionnaire",
      "id": "31774590-f66f-4ec9-889f-a7894f4745cb",
      "identifier": [ {
        "value": "8067b9b2-e604-4414-b56f-8e3cc4de4b1b"
      } ],
      "version": "2011-02-17T17:31:14.313Z",
      "status": "active",
      "experimental": false,
      "date": "2011-02-17T17:31:14+00:00",
      "publisher": "User ID: '3137' User name: 'redacted' User skill set: 'T1'",
      "lastReviewDate": "2011-02-17",
      "jurisdiction": [ {
        "text": "England"
      } ],
      "contact": [ {
        "telecom": [ {
          "system": "phone",
          "value": "redacted"
        } ]
      } ],
      "subjectType": [ "Patient" ],
      "item": [ {
        "linkId": "8067b9b2-e604-4414-b56f-8e3cc4de4b1b",
        "prefix": "0",
        "text": "Speak to Clinician from our Service immediately",
        "type": "choice",
        "required": true,
        "repeats": false,
        "option": [ {
          "valueString": ", Selected: false"
        } ]
      } ]
    }
  }, {
    "fullUrl": "urn:uuid:25d6a98d-9dfc-4606-bfba-34f4fce7cac0",
    "resource": {
      "resourceType": "QuestionnaireResponse",
      "id": "25d6a98d-9dfc-4606-bfba-34f4fce7cac0",
      "identifier": {
        "value": "8067b9b2-e604-4414-b56f-8e3cc4de4b1b"
      },
      "questionnaire": {
        "reference": "urn:uuid:01f6abab-5ffc-4faa-89aa-6dbb18d54ac5"
      },
      "status": "completed",
      "subject": {
        "reference": "urn:uuid:31480fe2-365e-4c16-a3be-8fe1f950b345"
      },
      "context": {
        "reference": "urn:uuid:ecce94a7-14da-403a-beaf-a60d26a11916"
      },
      "authored": "2011-02-17T17:31:14+00:00",
      "item": [ {
        "linkId": "N/A"
      } ]
    }
  }, {
    "fullUrl": "urn:uuid:01f6abab-5ffc-4faa-89aa-6dbb18d54ac5",
    "resource": {
      "resourceType": "Questionnaire",
      "id": "01f6abab-5ffc-4faa-89aa-6dbb18d54ac5",
      "identifier": [ {
        "value": "8067b9b2-e604-4414-b56f-8e3cc4de4b1b"
      } ],
      "version": "2011-02-17T17:31:14.313Z",
      "status": "active",
      "experimental": false,
      "date": "2011-02-17T17:31:14+00:00",
      "publisher": "User ID: '3137' User name: 'redacted' User skill set: 'T1'",
      "lastReviewDate": "2011-02-17",
      "jurisdiction": [ {
        "text": "England"
      } ],
      "contact": [ {
        "telecom": [ {
          "system": "phone",
          "value": "redacted"
        } ]
      } ],
      "subjectType": [ "Patient" ],
      "item": [ {
        "linkId": "8067b9b2-e604-4414-b56f-8e3cc4de4b1b",
        "prefix": "0",
        "type": "choice",
        "required": true,
        "repeats": false,
        "option": [ {
          "valueString": ", Selected: false"
        } ]
      } ]
    }
  }, {
    "fullUrl": "urn:uuid:1072599e-a51a-443d-8a2d-b630880a736f",
    "resource": {
      "resourceType": "QuestionnaireResponse",
      "id": "1072599e-a51a-443d-8a2d-b630880a736f",
      "identifier": {
        "value": "8067b9b2-e604-4414-b56f-8e3cc4de4b1b"
      },
      "questionnaire": {
        "reference": "urn:uuid:5bb192e1-6f32-4182-98cb-db374eb2d66d"
      },
      "status": "completed",
      "subject": {
        "reference": "urn:uuid:31480fe2-365e-4c16-a3be-8fe1f950b345"
      },
      "context": {
        "reference": "urn:uuid:ecce94a7-14da-403a-beaf-a60d26a11916"
      },
      "authored": "2011-02-17T17:31:14+00:00",
      "item": [ {
        "linkId": "N/A"
      } ]
    }
  }, {
    "fullUrl": "urn:uuid:5bb192e1-6f32-4182-98cb-db374eb2d66d",
    "resource": {
      "resourceType": "Questionnaire",
      "id": "5bb192e1-6f32-4182-98cb-db374eb2d66d",
      "identifier": [ {
        "value": "8067b9b2-e604-4414-b56f-8e3cc4de4b1b"
      } ],
      "version": "2011-02-17T17:31:14.313Z",
      "status": "active",
      "experimental": false,
      "date": "2011-02-17T17:31:14+00:00",
      "publisher": "User ID: '3137' User name: 'redacted' User skill set: 'T1'",
      "lastReviewDate": "2011-02-17",
      "jurisdiction": [ {
        "text": "England"
      } ],
      "contact": [ {
        "telecom": [ {
          "system": "phone",
          "value": "redacted"
        } ]
      } ],
      "subjectType": [ "Patient" ],
      "item": [ {
        "linkId": "8067b9b2-e604-4414-b56f-8e3cc4de4b1b",
        "prefix": "0",
        "type": "choice",
        "required": true,
        "repeats": false,
        "option": [ {
          "valueString": ", Selected: false"
        } ]
      } ]
    }
  }, {
    "fullUrl": "urn:uuid:dfbf075e-9744-47cb-8c3d-40428871b254",
    "resource": {
      "resourceType": "QuestionnaireResponse",
      "id": "dfbf075e-9744-47cb-8c3d-40428871b254",
      "identifier": {
        "value": "8067b9b2-e604-4414-b56f-8e3cc4de4b1b"
      },
      "questionnaire": {
        "reference": "urn:uuid:c7a543c7-1682-4345-99ab-30f6e99c6849"
      },
      "status": "completed",
      "subject": {
        "reference": "urn:uuid:31480fe2-365e-4c16-a3be-8fe1f950b345"
      },
      "context": {
        "reference": "urn:uuid:ecce94a7-14da-403a-beaf-a60d26a11916"
      },
      "authored": "2011-02-17T17:31:14+00:00",
      "item": [ {
        "linkId": "Tx220109",
        "text": "What is the reason for the call?",
        "answer": [ {
          "valueString": "an injury or other health problem"
        } ]
      } ]
    }
  }, {
    "fullUrl": "urn:uuid:c7a543c7-1682-4345-99ab-30f6e99c6849",
    "resource": {
      "resourceType": "Questionnaire",
      "id": "c7a543c7-1682-4345-99ab-30f6e99c6849",
      "identifier": [ {
        "value": "8067b9b2-e604-4414-b56f-8e3cc4de4b1b"
      } ],
      "version": "2011-02-17T17:31:14.313Z",
      "status": "active",
      "experimental": false,
      "date": "2011-02-17T17:31:14+00:00",
      "publisher": "User ID: '3137' User name: 'redacted' User skill set: 'T1'",
      "lastReviewDate": "2011-02-17",
      "jurisdiction": [ {
        "text": "England"
      } ],
      "contact": [ {
        "telecom": [ {
          "system": "phone",
          "value": "redacted"
        } ]
      } ],
      "subjectType": [ "Patient" ],
      "item": [ {
        "linkId": "8067b9b2-e604-4414-b56f-8e3cc4de4b1b",
        "prefix": "5",
        "text": "What is the reason for the call?",
        "type": "choice",
        "required": true,
        "repeats": false,
        "option": [ {
          "valueString": "an injury or other health problem, Selected: true"
        }, {
          "valueString": "a need to access another healthcare provider, Selected: false"
        }, {
          "valueString": "a healthcare professional requesting contact with another clinician, Selected: false"
        }, {
          "valueString": "a report of results or tests, Selected: false"
        }, {
          "valueString": "more, Selected: false"
        } ]
      } ]
    }
  }, {
    "fullUrl": "urn:uuid:d6d0c7bf-0d82-4351-a69e-02f2d887fbb0",
    "resource": {
      "resourceType": "QuestionnaireResponse",
      "id": "d6d0c7bf-0d82-4351-a69e-02f2d887fbb0",
      "identifier": {
        "value": "8067b9b2-e604-4414-b56f-8e3cc4de4b1b"
      },
      "questionnaire": {
        "reference": "urn:uuid:b479c477-0974-4cf3-b71d-9451aca92d88"
      },
      "status": "completed",
      "subject": {
        "reference": "urn:uuid:31480fe2-365e-4c16-a3be-8fe1f950b345"
      },
      "context": {
        "reference": "urn:uuid:ecce94a7-14da-403a-beaf-a60d26a11916"
      },
      "authored": "2011-02-17T17:31:14+00:00",
      "item": [ {
        "linkId": "Tx140118",
        "text": "Has the baby just been born?",
        "answer": [ {
          "valueString": "no"
        } ]
      } ]
    }
  }, {
    "fullUrl": "urn:uuid:b479c477-0974-4cf3-b71d-9451aca92d88",
    "resource": {
      "resourceType": "Questionnaire",
      "id": "b479c477-0974-4cf3-b71d-9451aca92d88",
      "identifier": [ {
        "value": "8067b9b2-e604-4414-b56f-8e3cc4de4b1b"
      } ],
      "version": "2011-02-17T17:31:14.313Z",
      "status": "active",
      "experimental": false,
      "date": "2011-02-17T17:31:14+00:00",
      "publisher": "User ID: '3137' User name: 'redacted' User skill set: 'T1'",
      "lastReviewDate": "2011-02-17",
      "jurisdiction": [ {
        "text": "England"
      } ],
      "contact": [ {
        "telecom": [ {
          "system": "phone",
          "value": "redacted"
        } ]
      } ],
      "subjectType": [ "Patient" ],
      "item": [ {
        "linkId": "8067b9b2-e604-4414-b56f-8e3cc4de4b1b",
        "prefix": "35",
        "text": "Has the baby just been born?",
        "type": "choice",
        "required": true,
        "repeats": false,
        "option": [ {
          "valueString": "yes, Selected: false"
        }, {
          "valueString": "not sure, Selected: false"
        }, {
          "valueString": "no, Selected: true"
        } ]
      } ]
    }
  }, {
    "fullUrl": "urn:uuid:845d5603-440c-409f-af04-146d7e59e5cb",
    "resource": {
      "resourceType": "QuestionnaireResponse",
      "id": "845d5603-440c-409f-af04-146d7e59e5cb",
      "identifier": {
        "value": "8067b9b2-e604-4414-b56f-8e3cc4de4b1b"
      },
      "questionnaire": {
        "reference": "urn:uuid:0f3a3df4-0eaa-4e1d-b9f3-833fea24d7fe"
      },
      "status": "completed",
      "subject": {
        "reference": "urn:uuid:31480fe2-365e-4c16-a3be-8fe1f950b345"
      },
      "context": {
        "reference": "urn:uuid:ecce94a7-14da-403a-beaf-a60d26a11916"
      },
      "authored": "2011-02-17T17:31:14+00:00",
      "item": [ {
        "linkId": "Tx220110",
        "text": "Is he breathing and conscious?",
        "answer": [ {
          "valueString": "breathing AND conscious"
        } ]
      } ]
    }
  }, {
    "fullUrl": "urn:uuid:0f3a3df4-0eaa-4e1d-b9f3-833fea24d7fe",
    "resource": {
      "resourceType": "Questionnaire",
      "id": "0f3a3df4-0eaa-4e1d-b9f3-833fea24d7fe",
      "identifier": [ {
        "value": "8067b9b2-e604-4414-b56f-8e3cc4de4b1b"
      } ],
      "version": "2011-02-17T17:31:14.313Z",
      "status": "active",
      "experimental": false,
      "date": "2011-02-17T17:31:14+00:00",
      "publisher": "User ID: '3137' User name: 'redacted' User skill set: 'T1'",
      "lastReviewDate": "2011-02-17",
      "jurisdiction": [ {
        "text": "England"
      } ],
      "contact": [ {
        "telecom": [ {
          "system": "phone",
          "value": "redacted"
        } ]
      } ],
      "subjectType": [ "Patient" ],
      "item": [ {
        "linkId": "8067b9b2-e604-4414-b56f-8e3cc4de4b1b",
        "prefix": "40",
        "text": "Is he breathing and conscious?",
        "type": "choice",
        "required": true,
        "repeats": false,
        "option": [ {
          "valueString": "breathing AND conscious, Selected: true"
        }, {
          "valueString": "breathing but NOT conscious (includes current fitting), Selected: false"
        }, {
          "valueString": "NOT breathing, Selected: false"
        }, {
          "valueString": "choking now, Selected: false"
        } ]
      } ]
    }
  }, {
    "fullUrl": "urn:uuid:9de899fd-9f75-4f62-9328-e17050c8d897",
    "resource": {
      "resourceType": "QuestionnaireResponse",
      "id": "9de899fd-9f75-4f62-9328-e17050c8d897",
      "identifier": {
        "value": "8067b9b2-e604-4414-b56f-8e3cc4de4b1b"
      },
      "questionnaire": {
        "reference": "urn:uuid:4179a55b-e153-48d2-8e29-22392d32ab9a"
      },
      "status": "completed",
      "subject": {
        "reference": "urn:uuid:31480fe2-365e-4c16-a3be-8fe1f950b345"
      },
      "context": {
        "reference": "urn:uuid:ecce94a7-14da-403a-beaf-a60d26a11916"
      },
      "authored": "2011-02-17T17:31:14+00:00",
      "item": [ {
        "linkId": "Tx220285",
        "text": "Has he been bleeding very heavily IN THE LAST HOUR?",
        "answer": [ {
          "valueString": "an egg cupful or more from a wound"
        } ]
      } ]
    }
  }, {
    "fullUrl": "urn:uuid:4179a55b-e153-48d2-8e29-22392d32ab9a",
    "resource": {
      "resourceType": "Questionnaire",
      "id": "4179a55b-e153-48d2-8e29-22392d32ab9a",
      "identifier": [ {
        "value": "8067b9b2-e604-4414-b56f-8e3cc4de4b1b"
      } ],
      "version": "2011-02-17T17:31:14.313Z",
      "status": "active",
      "experimental": false,
      "date": "2011-02-17T17:31:14+00:00",
      "publisher": "User ID: '3137' User name: 'redacted' User skill set: 'T1'",
      "lastReviewDate": "2011-02-17",
      "jurisdiction": [ {
        "text": "England"
      } ],
      "contact": [ {
        "telecom": [ {
          "system": "phone",
          "value": "redacted"
        } ]
      } ],
      "subjectType": [ "Patient" ],
      "item": [ {
        "linkId": "8067b9b2-e604-4414-b56f-8e3cc4de4b1b",
        "prefix": "60",
        "text": "Has he been bleeding very heavily IN THE LAST HOUR?",
        "type": "choice",
        "required": true,
        "repeats": false,
        "option": [ {
          "valueString": "blood spurting from a wound, Selected: false"
        }, {
          "valueString": "an egg cupful or more of red blood from a body opening, Selected: false"
        }, {
          "valueString": "an egg cupful or more from a wound, Selected: true"
        }, {
          "valueString": "not sure, Selected: false"
        }, {
          "valueString": "no, Selected: false"
        } ]
      } ]
    }
  }, {
    "fullUrl": "urn:uuid:07a0f461-ed88-4659-a6d3-e569eca57a30",
    "resource": {
      "resourceType": "QuestionnaireResponse",
      "id": "07a0f461-ed88-4659-a6d3-e569eca57a30",
      "identifier": {
        "value": "8067b9b2-e604-4414-b56f-8e3cc4de4b1b"
      },
      "questionnaire": {
        "reference": "urn:uuid:4f81d725-d1f1-4e30-b0b8-9bebbbc5aae9"
      },
      "status": "completed",
      "subject": {
        "reference": "urn:uuid:31480fe2-365e-4c16-a3be-8fe1f950b345"
      },
      "context": {
        "reference": "urn:uuid:ecce94a7-14da-403a-beaf-a60d26a11916"
      },
      "authored": "2011-02-17T17:31:14+00:00",
      "item": [ {
        "linkId": "Tx140109",
        "text": "Is he fighting desperately for every breath?",
        "answer": [ {
          "valueString": "no"
        } ]
      } ]
    }
  }, {
    "fullUrl": "urn:uuid:4f81d725-d1f1-4e30-b0b8-9bebbbc5aae9",
    "resource": {
      "resourceType": "Questionnaire",
      "id": "4f81d725-d1f1-4e30-b0b8-9bebbbc5aae9",
      "identifier": [ {
        "value": "8067b9b2-e604-4414-b56f-8e3cc4de4b1b"
      } ],
      "version": "2011-02-17T17:31:14.313Z",
      "status": "active",
      "experimental": false,
      "date": "2011-02-17T17:31:14+00:00",
      "publisher": "User ID: '3137' User name: 'redacted' User skill set: 'T1'",
      "lastReviewDate": "2011-02-17",
      "jurisdiction": [ {
        "text": "England"
      } ],
      "contact": [ {
        "telecom": [ {
          "system": "phone",
          "value": "redacted"
        } ]
      } ],
      "subjectType": [ "Patient" ],
      "item": [ {
        "linkId": "8067b9b2-e604-4414-b56f-8e3cc4de4b1b",
        "prefix": "20000",
        "text": "Is he fighting desperately for every breath?",
        "type": "choice",
        "required": true,
        "repeats": false,
        "option": [ {
          "valueString": "yes, Selected: false"
        }, {
          "valueString": "not sure, Selected: false"
        }, {
          "valueString": "no, Selected: true"
        } ]
      } ]
    }
  }, {
    "fullUrl": "urn:uuid:d02cbe65-2fb8-48bf-b32e-5f9af9ee87c8",
    "resource": {
      "resourceType": "QuestionnaireResponse",
      "id": "d02cbe65-2fb8-48bf-b32e-5f9af9ee87c8",
      "identifier": {
        "value": "8067b9b2-e604-4414-b56f-8e3cc4de4b1b"
      },
      "questionnaire": {
        "reference": "urn:uuid:270321cd-5c72-4929-a90d-391d833c5e88"
      },
      "status": "completed",
      "subject": {
        "reference": "urn:uuid:31480fe2-365e-4c16-a3be-8fe1f950b345"
      },
      "context": {
        "reference": "urn:uuid:ecce94a7-14da-403a-beaf-a60d26a11916"
      },
      "authored": "2011-02-17T17:31:14+00:00",
      "item": [ {
        "linkId": "Tx220563",
        "text": "Is he limp, floppy and/or unresponsive?",
        "answer": [ {
          "valueString": "no"
        } ]
      } ]
    }
  }, {
    "fullUrl": "urn:uuid:270321cd-5c72-4929-a90d-391d833c5e88",
    "resource": {
      "resourceType": "Questionnaire",
      "id": "270321cd-5c72-4929-a90d-391d833c5e88",
      "identifier": [ {
        "value": "8067b9b2-e604-4414-b56f-8e3cc4de4b1b"
      } ],
      "version": "2011-02-17T17:31:14.313Z",
      "status": "active",
      "experimental": false,
      "date": "2011-02-17T17:31:14+00:00",
      "publisher": "User ID: '3137' User name: 'redacted' User skill set: 'T1'",
      "lastReviewDate": "2011-02-17",
      "jurisdiction": [ {
        "text": "England"
      } ],
      "contact": [ {
        "telecom": [ {
          "system": "phone",
          "value": "redacted"
        } ]
      } ],
      "subjectType": [ "Patient" ],
      "item": [ {
        "linkId": "8067b9b2-e604-4414-b56f-8e3cc4de4b1b",
        "prefix": "20400",
        "text": "Is he limp, floppy and/or unresponsive?",
        "type": "choice",
        "required": true,
        "repeats": false,
        "option": [ {
          "valueString": "yes, Selected: false"
        }, {
          "valueString": "not sure, Selected: false"
        }, {
          "valueString": "no, Selected: true"
        } ]
      } ]
    }
  }, {
    "fullUrl": "urn:uuid:1a54b1f4-53d9-4a95-843d-747898c1f01c",
    "resource": {
      "resourceType": "QuestionnaireResponse",
      "id": "1a54b1f4-53d9-4a95-843d-747898c1f01c",
      "identifier": {
        "value": "8067b9b2-e604-4414-b56f-8e3cc4de4b1b"
      },
      "questionnaire": {
        "reference": "urn:uuid:8e79b64f-f8a6-46b4-b5dd-46214a5bc821"
      },
      "status": "completed",
      "subject": {
        "reference": "urn:uuid:31480fe2-365e-4c16-a3be-8fe1f950b345"
      },
      "context": {
        "reference": "urn:uuid:ecce94a7-14da-403a-beaf-a60d26a11916"
      },
      "authored": "2011-02-17T17:31:14+00:00",
      "item": [ {
        "linkId": "Tx220561",
        "text": "Is he warm to touch?",
        "answer": [ {
          "valueString": "yes"
        } ]
      } ]
    }
  }, {
    "fullUrl": "urn:uuid:8e79b64f-f8a6-46b4-b5dd-46214a5bc821",
    "resource": {
      "resourceType": "Questionnaire",
      "id": "8e79b64f-f8a6-46b4-b5dd-46214a5bc821",
      "identifier": [ {
        "value": "8067b9b2-e604-4414-b56f-8e3cc4de4b1b"
      } ],
      "version": "2011-02-17T17:31:14.313Z",
      "status": "active",
      "experimental": false,
      "date": "2011-02-17T17:31:14+00:00",
      "publisher": "User ID: '3137' User name: 'redacted' User skill set: 'T1'",
      "lastReviewDate": "2011-02-17",
      "jurisdiction": [ {
        "text": "England"
      } ],
      "contact": [ {
        "telecom": [ {
          "system": "phone",
          "value": "redacted"
        } ]
      } ],
      "subjectType": [ "Patient" ],
      "item": [ {
        "linkId": "8067b9b2-e604-4414-b56f-8e3cc4de4b1b",
        "prefix": "20450",
        "text": "Is he warm to touch?",
        "type": "choice",
        "required": true,
        "repeats": false,
        "option": [ {
          "valueString": "yes, Selected: true"
        }, {
          "valueString": "not sure, Selected: false"
        }, {
          "valueString": "no, Selected: false"
        }, {
          "valueString": "not safe to touch, Selected: false"
        } ]
      } ]
    }
  }, {
    "fullUrl": "urn:uuid:e0d38088-14e5-4a66-98f5-cf89d6a96518",
    "resource": {
      "resourceType": "QuestionnaireResponse",
      "id": "e0d38088-14e5-4a66-98f5-cf89d6a96518",
      "identifier": {
        "value": "8067b9b2-e604-4414-b56f-8e3cc4de4b1b"
      },
      "questionnaire": {
        "reference": "urn:uuid:043a905b-6390-4090-8286-e6eb6da0f6ca"
      },
      "status": "completed",
      "subject": {
        "reference": "urn:uuid:31480fe2-365e-4c16-a3be-8fe1f950b345"
      },
      "context": {
        "reference": "urn:uuid:ecce94a7-14da-403a-beaf-a60d26a11916"
      },
      "authored": "2011-02-17T17:31:14+00:00",
      "item": [ {
        "linkId": "Tx120019",
        "text": "Was the injury caused by any of the following?",
        "answer": [ {
          "valueString": "no"
        } ]
      } ]
    }
  }, {
    "fullUrl": "urn:uuid:043a905b-6390-4090-8286-e6eb6da0f6ca",
    "resource": {
      "resourceType": "Questionnaire",
      "id": "043a905b-6390-4090-8286-e6eb6da0f6ca",
      "identifier": [ {
        "value": "8067b9b2-e604-4414-b56f-8e3cc4de4b1b"
      } ],
      "version": "2011-02-17T17:31:14.313Z",
      "status": "active",
      "experimental": false,
      "date": "2011-02-17T17:31:14+00:00",
      "publisher": "User ID: '3137' User name: 'redacted' User skill set: 'T1'",
      "lastReviewDate": "2011-02-17",
      "jurisdiction": [ {
        "text": "England"
      } ],
      "contact": [ {
        "telecom": [ {
          "system": "phone",
          "value": "redacted"
        } ]
      } ],
      "subjectType": [ "Patient" ],
      "item": [ {
        "linkId": "8067b9b2-e604-4414-b56f-8e3cc4de4b1b",
        "prefix": "20800",
        "text": "Was the injury caused by any of the following?",
        "type": "choice",
        "required": true,
        "repeats": false,
        "option": [ {
          "valueString": "a gunshot, Selected: false"
        }, {
          "valueString": "a stabbing, Selected: false"
        }, {
          "valueString": "being ejected from a vehicle, Selected: false"
        }, {
          "valueString": "not sure, Selected: false"
        }, {
          "valueString": "no, Selected: true"
        } ]
      } ]
    }
  }, {
    "fullUrl": "urn:uuid:8c964536-ce30-40d1-8e29-2af922e0d4ed",
    "resource": {
      "resourceType": "QuestionnaireResponse",
      "id": "8c964536-ce30-40d1-8e29-2af922e0d4ed",
      "identifier": {
        "value": "8067b9b2-e604-4414-b56f-8e3cc4de4b1b"
      },
      "questionnaire": {
        "reference": "urn:uuid:7e149f19-2ef7-4bf9-b893-ad90cf81c32c"
      },
      "status": "completed",
      "subject": {
        "reference": "urn:uuid:31480fe2-365e-4c16-a3be-8fe1f950b345"
      },
      "context": {
        "reference": "urn:uuid:ecce94a7-14da-403a-beaf-a60d26a11916"
      },
      "authored": "2011-02-17T17:31:14+00:00",
      "item": [ {
        "linkId": "Tx220286",
        "text": "DID THE INJURY INVOLVE ANY OF THE FOLLOWING?",
        "answer": [ {
          "valueString": "no"
        } ]
      } ]
    }
  }, {
    "fullUrl": "urn:uuid:7e149f19-2ef7-4bf9-b893-ad90cf81c32c",
    "resource": {
      "resourceType": "Questionnaire",
      "id": "7e149f19-2ef7-4bf9-b893-ad90cf81c32c",
      "identifier": [ {
        "value": "8067b9b2-e604-4414-b56f-8e3cc4de4b1b"
      } ],
      "version": "2011-02-17T17:31:14.313Z",
      "status": "active",
      "experimental": false,
      "date": "2011-02-17T17:31:14+00:00",
      "publisher": "User ID: '3137' User name: 'redacted' User skill set: 'T1'",
      "lastReviewDate": "2011-02-17",
      "jurisdiction": [ {
        "text": "England"
      } ],
      "contact": [ {
        "telecom": [ {
          "system": "phone",
          "value": "redacted"
        } ]
      } ],
      "subjectType": [ "Patient" ],
      "item": [ {
        "linkId": "8067b9b2-e604-4414-b56f-8e3cc4de4b1b",
        "prefix": "23100",
        "text": "DID THE INJURY INVOLVE ANY OF THE FOLLOWING?",
        "type": "choice",
        "required": true,
        "repeats": false,
        "option": [ {
          "valueString": "a fall of 5 metres or more (specify), Selected: false"
        }, {
          "valueString": "multiple major injuries (specify), Selected: false"
        }, {
          "valueString": "major wound or amputation - not just involving a single finger or toe (specify), Selected: false"
        }, {
          "valueString": "being knocked over by a blast (specify), Selected: false"
        }, {
          "valueString": "not sure, Selected: false"
        }, {
          "valueString": "no, Selected: true"
        } ]
      } ]
    }
  }, {
    "fullUrl": "urn:uuid:bae5c1d8-0f50-4fb7-93de-b6fb48f36f3a",
    "resource": {
      "resourceType": "QuestionnaireResponse",
      "id": "bae5c1d8-0f50-4fb7-93de-b6fb48f36f3a",
      "identifier": {
        "value": "8067b9b2-e604-4414-b56f-8e3cc4de4b1b"
      },
      "questionnaire": {
        "reference": "urn:uuid:f573f16d-dda9-4715-ae5a-f2ac69eb3941"
      },
      "status": "completed",
      "subject": {
        "reference": "urn:uuid:31480fe2-365e-4c16-a3be-8fe1f950b345"
      },
      "context": {
        "reference": "urn:uuid:ecce94a7-14da-403a-beaf-a60d26a11916"
      },
      "authored": "2011-02-17T17:31:14+00:00",
      "item": [ {
        "linkId": "Tx140159",
        "text": "What is the reason for ending the assessment?",
        "answer": [ {
          "valueString": "transfer to a clinician"
        } ]
      } ]
    }
  }, {
    "fullUrl": "urn:uuid:f573f16d-dda9-4715-ae5a-f2ac69eb3941",
    "resource": {
      "resourceType": "Questionnaire",
      "id": "f573f16d-dda9-4715-ae5a-f2ac69eb3941",
      "identifier": [ {
        "value": "8067b9b2-e604-4414-b56f-8e3cc4de4b1b"
      } ],
      "version": "2011-02-17T17:31:14.313Z",
      "status": "active",
      "experimental": false,
      "date": "2011-02-17T17:31:14+00:00",
      "publisher": "User ID: '3137' User name: 'redacted' User skill set: 'T1'",
      "lastReviewDate": "2011-02-17",
      "jurisdiction": [ {
        "text": "England"
      } ],
      "contact": [ {
        "telecom": [ {
          "system": "phone",
          "value": "redacted"
        } ]
      } ],
      "subjectType": [ "Patient" ],
      "item": [ {
        "linkId": "8067b9b2-e604-4414-b56f-8e3cc4de4b1b",
        "prefix": "0",
        "text": "What is the reason for ending the assessment?",
        "type": "choice",
        "required": true,
        "repeats": false,
        "option": [ {
          "valueString": "the phone line went dead, Selected: false"
        }, {
          "valueString": "the caller terminated the call (specify), Selected: false"
        }, {
          "valueString": "I terminated the call (specify), Selected: false"
        }, {
          "valueString": "triage not possible, Selected: false"
        }, {
          "valueString": "transfer to a clinician, Selected: true"
        } ]
      } ]
    }
  }, {
    "fullUrl": "urn:uuid:c4c0d0ec-0342-4562-a0cb-0cfae2c82837",
    "resource": {
      "resourceType": "QuestionnaireResponse",
      "id": "c4c0d0ec-0342-4562-a0cb-0cfae2c82837",
      "identifier": {
        "value": "8067b9b2-e604-4414-b56f-8e3cc4de4b1b"
      },
      "questionnaire": {
        "reference": "urn:uuid:aaf132e3-774a-4e79-9b52-b2068aab3762"
      },
      "status": "completed",
      "subject": {
        "reference": "urn:uuid:31480fe2-365e-4c16-a3be-8fe1f950b345"
      },
      "context": {
        "reference": "urn:uuid:ecce94a7-14da-403a-beaf-a60d26a11916"
      },
      "authored": "2011-02-17T17:31:14+00:00",
      "item": [ {
        "linkId": "Tx220286",
        "text": "DID THE INJURY INVOLVE ANY OF THE FOLLOWING?",
        "answer": [ {
          "valueString": "no"
        } ]
      } ]
    }
  }, {
    "fullUrl": "urn:uuid:aaf132e3-774a-4e79-9b52-b2068aab3762",
    "resource": {
      "resourceType": "Questionnaire",
      "id": "aaf132e3-774a-4e79-9b52-b2068aab3762",
      "identifier": [ {
        "value": "8067b9b2-e604-4414-b56f-8e3cc4de4b1b"
      } ],
      "version": "2011-02-17T17:31:14.313Z",
      "status": "active",
      "experimental": false,
      "date": "2011-02-17T17:31:14+00:00",
      "publisher": "User ID: '3137' User name: 'redacted' User skill set: 'T1'",
      "lastReviewDate": "2011-02-17",
      "jurisdiction": [ {
        "text": "England"
      } ],
      "contact": [ {
        "telecom": [ {
          "system": "phone",
          "value": "redacted"
        } ]
      } ],
      "subjectType": [ "Patient" ],
      "item": [ {
        "linkId": "8067b9b2-e604-4414-b56f-8e3cc4de4b1b",
        "prefix": "23100",
        "text": "DID THE INJURY INVOLVE ANY OF THE FOLLOWING?",
        "type": "choice",
        "required": true,
        "repeats": false,
        "option": [ {
          "valueString": "a fall of 5 metres or more (specify), Selected: false"
        }, {
          "valueString": "multiple major injuries (specify), Selected: false"
        }, {
          "valueString": "major wound or amputation - not just involving a single finger or toe (specify), Selected: false"
        }, {
          "valueString": "being knocked over by a blast (specify), Selected: false"
        }, {
          "valueString": "not sure, Selected: false"
        }, {
          "valueString": "no, Selected: true"
        } ]
      } ]
    }
  }, {
    "fullUrl": "urn:uuid:e0db93ef-28f0-4bc6-948c-6f30506d9e76",
    "resource": {
      "resourceType": "QuestionnaireResponse",
      "id": "e0db93ef-28f0-4bc6-948c-6f30506d9e76",
      "identifier": {
        "value": "8067b9b2-e604-4414-b56f-8e3cc4de4b1b"
      },
      "questionnaire": {
        "reference": "urn:uuid:88015e63-811f-4d7f-b326-4fa6035d6100"
      },
      "status": "completed",
      "subject": {
        "reference": "urn:uuid:31480fe2-365e-4c16-a3be-8fe1f950b345"
      },
      "context": {
        "reference": "urn:uuid:ecce94a7-14da-403a-beaf-a60d26a11916"
      },
      "authored": "2011-02-17T17:31:14+00:00",
      "item": [ {
        "linkId": "N/A",
        "text": "Dispatch 19 minute ambulance"
      } ]
    }
  }, {
    "fullUrl": "urn:uuid:88015e63-811f-4d7f-b326-4fa6035d6100",
    "resource": {
      "resourceType": "Questionnaire",
      "id": "88015e63-811f-4d7f-b326-4fa6035d6100",
      "identifier": [ {
        "value": "8067b9b2-e604-4414-b56f-8e3cc4de4b1b"
      } ],
      "version": "2011-02-17T17:31:14.313Z",
      "status": "active",
      "experimental": false,
      "date": "2011-02-17T17:31:14+00:00",
      "publisher": "User ID: '3137' User name: 'redacted' User skill set: 'T1'",
      "lastReviewDate": "2011-02-17",
      "jurisdiction": [ {
        "text": "England"
      } ],
      "contact": [ {
        "telecom": [ {
          "system": "phone",
          "value": "redacted"
        } ]
      } ],
      "subjectType": [ "Patient" ],
      "item": [ {
        "linkId": "8067b9b2-e604-4414-b56f-8e3cc4de4b1b",
        "prefix": "24100",
        "text": "Dispatch 19 minute ambulance",
        "type": "choice",
        "required": true,
        "repeats": false,
        "option": [ {
          "valueString": ", Selected: false"
        } ]
      } ]
    }
  }, {
    "fullUrl": "urn:uuid:38f10c3b-7ab7-46c1-8de3-0ab6d5992f57",
    "resource": {
      "resourceType": "PractitionerRole",
      "id": "38f10c3b-7ab7-46c1-8de3-0ab6d5992f57",
      "practitioner": {
        "reference": "urn:uuid:524e23b6-aafb-4780-9121-65d42a6a6f8e"
      },
      "organization": {
        "reference": "urn:uuid:ed16978f-5316-4f14-bd96-0173aa51f0de"
      },
      "code": [ {
        "coding": [ {
          "system": "2.16.840.1.113883.2.1.3.2.4.17.196",
          "code": "T1",
          "display": "Nurse Triage Practitioner"
        } ]
      } ]
    }
  }, {
    "fullUrl": "urn:uuid:ed16978f-5316-4f14-bd96-0173aa51f0de",
    "resource": {
      "resourceType": "Organization",
      "id": "ed16978f-5316-4f14-bd96-0173aa51f0de",
      "identifier": [ {
        "value": "5L399"
      } ],
      "name": "Medway NHS Foundation Trust"
    }
  }, {
    "fullUrl": "urn:uuid:a1e254c3-5ab3-469a-9ffd-8de1fc29f7f3",
    "resource": {
      "resourceType": "PractitionerRole",
      "id": "a1e254c3-5ab3-469a-9ffd-8de1fc29f7f3",
      "practitioner": {
        "reference": "urn:uuid:18263598-cb8b-4d65-ad6a-a21e9dbc1d7d"
      },
      "organization": {
        "reference": "urn:uuid:2e8d46d2-5fd8-438a-8e70-596f42987dac"
      },
      "code": [ {
        "coding": [ {
          "system": "2.16.840.1.113883.2.1.3.2.4.17.196",
          "code": "R0010",
          "display": "Medical Director"
        } ]
      } ]
    }
  }, {
    "fullUrl": "urn:uuid:2e8d46d2-5fd8-438a-8e70-596f42987dac",
    "resource": {
      "resourceType": "Organization",
      "id": "2e8d46d2-5fd8-438a-8e70-596f42987dac",
      "identifier": [ {
        "value": "VDE232323"
      } ],
      "name": "Medway South Out of Hours Centre"
    }
  }, {
    "fullUrl": "urn:uuid:b910eece-7508-40d0-a7a4-2c26dafbc452",
    "resource": {
      "resourceType": "Device",
      "id": "b910eece-7508-40d0-a7a4-2c26dafbc452",
      "model": "111 Adaptor",
      "version": "0.11.0"
    }
  }, {
    "fullUrl": "urn:uuid:84d4bffd-28ab-4bbf-b84b-5b853285250a",
    "resource": {
      "resourceType": "List",
      "id": "84d4bffd-28ab-4bbf-b84b-5b853285250a",
      "status": "current",
      "mode": "working",
      "title": "111 Report List",
      "code": {
        "coding": [ {
          "system": "http://snomed.info/sct",
          "code": "225390008",
          "display": "Triage"
        } ]
      },
      "subject": {
        "reference": "urn:uuid:31480fe2-365e-4c16-a3be-8fe1f950b345"
      },
      "encounter": {
        "reference": "urn:uuid:ecce94a7-14da-403a-beaf-a60d26a11916"
      },
      "date": "2021-10-01T07:33:57+00:00",
      "source": {
        "reference": "urn:uuid:b910eece-7508-40d0-a7a4-2c26dafbc452"
      },
      "orderedBy": {
        "coding": [ {
          "system": "http://hl7.org/fhir/list-order",
          "code": "event-date",
          "display": "Sorted by Event Date"
        } ]
      },
      "entry": [ {
        "item": {
          "reference": "urn:uuid:18263598-cb8b-4d65-ad6a-a21e9dbc1d7d"
        }
      }, {
        "item": {
          "reference": "urn:uuid:2cdd4666-24b1-4e35-af7d-613aac21a414"
        }
      }, {
        "item": {
          "reference": "urn:uuid:f7cdafe8-7bfe-4c2c-9d1e-0f5ec6d1ae21"
        }
      }, {
        "item": {
          "reference": "urn:uuid:033bf4c2-5bb7-497c-b74a-53df6a2c34ea"
        }
      }, {
        "item": {
          "reference": "urn:uuid:c5ac8ca2-feef-47ef-bb3a-14f14f4446ed"
        }
      }, {
        "item": {
          "reference": "urn:uuid:ed16978f-5316-4f14-bd96-0173aa51f0de"
        }
      }, {
        "item": {
          "reference": "urn:uuid:62076cd9-05bf-483b-915d-46290fd7561d"
        }
      }, {
        "item": {
          "reference": "urn:uuid:524e23b6-aafb-4780-9121-65d42a6a6f8e"
        }
      }, {
        "item": {
          "reference": "urn:uuid:a624fbcf-c0c3-4bf8-82cb-d10f8eab6a5c"
        }
      }, {
        "item": {
          "reference": "urn:uuid:64817aa3-3395-440a-8adb-8254863d74a8"
        }
      }, {
        "item": {
          "reference": "urn:uuid:2e8d46d2-5fd8-438a-8e70-596f42987dac"
        }
      }, {
        "item": {
          "reference": "urn:uuid:981a8544-6e80-4732-8f20-3be86aeb5096"
        }
      }, {
        "item": {
          "reference": "urn:uuid:c415a527-c821-4f30-9388-75ee977013e3"
        }
      }, {
        "item": {
          "reference": "urn:uuid:e798381d-8a68-48bc-8f05-341d9772af0d"
        }
      }, {
        "item": {
          "reference": "urn:uuid:01f6abab-5ffc-4faa-89aa-6dbb18d54ac5"
        }
      }, {
        "item": {
          "reference": "urn:uuid:dfbf075e-9744-47cb-8c3d-40428871b254"
        }
      }, {
        "item": {
          "reference": "urn:uuid:5b8dd527-88ab-4d93-8c6d-40ba2192416a"
        }
      }, {
        "item": {
          "reference": "urn:uuid:0f3a3df4-0eaa-4e1d-b9f3-833fea24d7fe"
        }
      }, {
        "item": {
          "reference": "urn:uuid:f573f16d-dda9-4715-ae5a-f2ac69eb3941"
        }
      }, {
        "item": {
          "reference": "urn:uuid:4179a55b-e153-48d2-8e29-22392d32ab9a"
        }
      }, {
        "item": {
          "reference": "urn:uuid:845d5603-440c-409f-af04-146d7e59e5cb"
        }
      }, {
        "item": {
          "reference": "urn:uuid:25d6a98d-9dfc-4606-bfba-34f4fce7cac0"
        }
      }, {
        "item": {
          "reference": "urn:uuid:1d2f40ab-2f6d-4193-9965-6dfe40d09ea4"
        }
      }, {
        "item": {
          "reference": "urn:uuid:2ed18f33-48ea-4592-81bb-24f88bba4b41"
        }
      }, {
        "item": {
          "reference": "urn:uuid:1072599e-a51a-443d-8a2d-b630880a736f"
        }
      }, {
        "item": {
          "reference": "urn:uuid:d6d0c7bf-0d82-4351-a69e-02f2d887fbb0"
        }
      }, {
        "item": {
          "reference": "urn:uuid:0d10d0e1-6f89-4bf7-a34a-f2a59b5d9eb9"
        }
      }, {
        "item": {
          "reference": "urn:uuid:88015e63-811f-4d7f-b326-4fa6035d6100"
        }
      }, {
        "item": {
          "reference": "urn:uuid:1a54b1f4-53d9-4a95-843d-747898c1f01c"
        }
      }, {
        "item": {
          "reference": "urn:uuid:043a905b-6390-4090-8286-e6eb6da0f6ca"
        }
      }, {
        "item": {
          "reference": "urn:uuid:7e149f19-2ef7-4bf9-b893-ad90cf81c32c"
        }
      }, {
        "item": {
          "reference": "urn:uuid:9a2fd2dd-cc84-478d-8f84-250ff1ba665a"
        }
      }, {
        "item": {
          "reference": "urn:uuid:c4c0d0ec-0342-4562-a0cb-0cfae2c82837"
        }
      }, {
        "item": {
          "reference": "urn:uuid:8e79b64f-f8a6-46b4-b5dd-46214a5bc821"
        }
      }, {
        "item": {
          "reference": "urn:uuid:920f0d79-297b-42f6-96bc-739006760f76"
        }
      }, {
        "item": {
          "reference": "urn:uuid:e45e340a-281a-498f-846d-3b333950ca40"
        }
      }, {
        "item": {
          "reference": "urn:uuid:4f81d725-d1f1-4e30-b0b8-9bebbbc5aae9"
        }
      }, {
        "item": {
          "reference": "urn:uuid:e0d38088-14e5-4a66-98f5-cf89d6a96518"
        }
      }, {
        "item": {
          "reference": "urn:uuid:1441eea3-9261-4aa6-bb00-6cef2900a386"
        }
      }, {
        "item": {
          "reference": "urn:uuid:5bb192e1-6f32-4182-98cb-db374eb2d66d"
        }
      }, {
        "item": {
          "reference": "urn:uuid:d02cbe65-2fb8-48bf-b32e-5f9af9ee87c8"
        }
      }, {
        "item": {
          "reference": "urn:uuid:70dc6542-9a42-4e9d-9605-1fcf86c505c6"
        }
      }, {
        "item": {
          "reference": "urn:uuid:e0db93ef-28f0-4bc6-948c-6f30506d9e76"
        }
      }, {
        "item": {
          "reference": "urn:uuid:c7a543c7-1682-4345-99ab-30f6e99c6849"
        }
      }, {
        "item": {
          "reference": "urn:uuid:73bd4c69-a912-4941-aca6-425b4e7223d1"
        }
      }, {
        "item": {
          "reference": "urn:uuid:b479c477-0974-4cf3-b71d-9451aca92d88"
        }
      }, {
        "item": {
          "reference": "urn:uuid:07a0f461-ed88-4659-a6d3-e569eca57a30"
        }
      }, {
        "item": {
          "reference": "urn:uuid:8dee47f7-3f0c-4a81-9535-4b4a812bbd71"
        }
      }, {
        "item": {
          "reference": "urn:uuid:ae003c15-b8d4-4147-860f-f16872df69df"
        }
      }, {
        "item": {
          "reference": "urn:uuid:31774590-f66f-4ec9-889f-a7894f4745cb"
        }
      }, {
        "item": {
          "reference": "urn:uuid:8af51af7-9725-43dd-b468-2933c4b21eed"
        }
      }, {
        "item": {
          "reference": "urn:uuid:2a9e2e37-4d60-4f6a-a881-db0976458aa6"
        }
      }, {
        "item": {
          "reference": "urn:uuid:620bac03-430d-4b36-8df3-a8667da86a36"
        }
      }, {
        "item": {
          "reference": "urn:uuid:4bcd72bb-9510-4455-a144-b1327128257f"
        }
      }, {
        "item": {
          "reference": "urn:uuid:aaf132e3-774a-4e79-9b52-b2068aab3762"
        }
      }, {
        "item": {
          "reference": "urn:uuid:8c964536-ce30-40d1-8e29-2af922e0d4ed"
        }
      }, {
        "item": {
          "reference": "urn:uuid:a18c4e1c-dd93-4fbf-8da7-8c183fd2a59f"
        }
      }, {
        "item": {
          "reference": "urn:uuid:270321cd-5c72-4929-a90d-391d833c5e88"
        }
      }, {
        "item": {
          "reference": "urn:uuid:bae5c1d8-0f50-4fb7-93de-b6fb48f36f3a"
        }
      }, {
        "item": {
          "reference": "urn:uuid:2601a3ab-50f3-479f-bbff-20174b543ac0"
        }
      }, {
        "item": {
          "reference": "urn:uuid:9de899fd-9f75-4f62-9328-e17050c8d897"
        }
      }, {
        "item": {
          "reference": "urn:uuid:8eec9bff-dccd-4b02-900b-eb41d16b991e"
        }
      } ]
    }
  } ]
}