{
  "resourceType": "Bundle",
  "identifier": {
    "type": {
      "text": "ClinicalDocument VersionNumber"
    },
    "value": "1"
  },
  "type": "message",
  "entry": [ {
    "fullUrl": "urn:uuid:2B77B3F5-3016-4A6D-821F-152CE420E58D",
    "resource": {
      "resourceType": "MessageHeader",
      "id": "2B77B3F5-3016-4A6D-821F-152CE420E58D",
      "event": {
        "system": "https://fhir.nhs.uk/STU3/CodeSystem/EventType-1",
        "code": "referral-1",
        "display": "Referral"
      },
      "destination": [ {
        "endpoint": "urn:nhs-uk:addressing:ods:EM396:DOSServiceID:26428"
      } ],
      "timestamp": "2025-10-30T09:45:22.000+00:00",
      "source": {
        "name": "NHS 111 Adaptor",
        "endpoint": "http://localhost:8080/report"
      },
      "reason": {
        "coding": [ {
          "system": "urn:nhs-itk:ns:201005:interaction",
          "code": "urn:nhs-itk:interaction:primaryNHS111RepeatCallerDocumentSet-v1-0"
        } ]
      }
    }
  }, {
    "fullUrl": "urn:uuid:786c1a2d-a9ba-40ce-a3e4-de0c4102bcd9",
    "resource": {
      "resourceType": "Encounter",
      "id": "786c1a2d-a9ba-40ce-a3e4-de0c4102bcd9",
      "identifier": [ {
        "system": "2.16.840.1.113883.2.1.3.2.4.18.34",
        "value": "D47E4F49-D4B8-4913-85B9-64AF5523B268"
      }, {
        "system": "2.16.840.1.113883.2.1.3.2.4.18.35",
        "value": "1193164"
      } ],
      "status": "finished",
      "type": [ {
        "text": "111 Encounter Referral"
      } ],
      "subject": {
        "reference": "urn:uuid:33d2a845-44d7-464b-9214-bfe846051eba"
      },
      "participant": [ {
        "type": [ {
          "coding": [ {
            "system": "http://hl7.org/fhir/ValueSet/encounter-participant-type",
            "code": "PPRF",
            "display": "Author"
          } ]
        } ],
        "individual": {
          "reference": "urn:uuid:d1424be8-3190-4043-9300-b71306b5d317"
        }
      }, {
        "type": [ {
          "coding": [ {
            "system": "http://hl7.org/fhir/ValueSet/encounter-participant-type",
            "code": "ATND",
            "display": "Responsible Party"
          } ]
        } ],
        "individual": {
          "reference": "urn:uuid:e5fe6960-2f2d-4560-8c64-ef613fc27720"
        }
      } ],
      "period": {
        "start": "2025-10-30T09:45:22+00:00"
      },
      "location": [ {
        "location": {
          "reference": "urn:uuid:3b1502c6-3259-413d-b1e8-d96e8805c7f3"
        },
        "status": "active"
      }, {
        "location": {
          "reference": "urn:uuid:1b37d5ed-0343-414b-9771-e96900652c86"
        },
        "status": "completed"
      } ],
      "serviceProvider": {
        "reference": "urn:uuid:883c6a6a-aa94-42e9-be13-7a1c5e6d74e1"
      }
    }
  }, {
    "fullUrl": "urn:uuid:883c6a6a-aa94-42e9-be13-7a1c5e6d74e1",
    "resource": {
      "resourceType": "Organization",
      "id": "883c6a6a-aa94-42e9-be13-7a1c5e6d74e1",
      "active": true,
      "type": [ {
        "text": "CST"
      } ],
      "name": "West Midlands Single Instance"
    }
  }, {
    "fullUrl": "urn:uuid:d1424be8-3190-4043-9300-b71306b5d317",
    "resource": {
      "resourceType": "Practitioner",
      "id": "d1424be8-3190-4043-9300-b71306b5d317",
      "active": true,
      "name": [ {
        "use": "official"
      } ]
    }
  }, {
    "fullUrl": "urn:uuid:e5fe6960-2f2d-4560-8c64-ef613fc27720",
    "resource": {
      "resourceType": "Practitioner",
      "id": "e5fe6960-2f2d-4560-8c64-ef613fc27720",
      "active": true,
      "name": [ {
        "use": "official",
        "family": "Walker",
        "given": [ "Alison" ]
      } ]
    }
  }, {
    "fullUrl": "urn:uuid:3b1502c6-3259-413d-b1e8-d96e8805c7f3",
    "resource": {
      "resourceType": "Location",
      "id": "3b1502c6-3259-413d-b1e8-d96e8805c7f3",
      "managingOrganization": {
        "reference": "urn:uuid:5a47f72a-95b4-4434-8861-aaa3abbdcd48"
      }
    }
  }, {
    "fullUrl": "urn:uuid:5a47f72a-95b4-4434-8861-aaa3abbdcd48",
    "resource": {
      "resourceType": "Organization",
      "id": "5a47f72a-95b4-4434-8861-aaa3abbdcd48",
      "identifier": [ {
        "value": "F81718"
      } ],
      "type": [ {
        "text": "GP Practice"
      } ],
      "name": "LYDIA HOUSE PRACTICE"
    }
  }, {
    "fullUrl": "urn:uuid:1b37d5ed-0343-414b-9771-e96900652c86",
    "resource": {
      "resourceType": "Location",
      "id": "1b37d5ed-0343-414b-9771-e96900652c86",
      "name": "Incident Location",
      "address": {
        "type": "physical",
        "line": [ "Whitchurch Hospital", "Claypit Street", "Whitchurch", "Shropshire" ],
        "postalCode": "SY13 1NT"
      }
    }
  }, {
    "fullUrl": "urn:uuid:33d2a845-44d7-464b-9214-bfe846051eba",
    "resource": {
      "resourceType": "Patient",
      "id": "33d2a845-44d7-464b-9214-bfe846051eba",
      "identifier": [ {
        "extension": [ {
          "url": "https://fhir.hl7.org.uk/STU3/StructureDefinition/Extension-CareConnect-NHSNumberVerificationStatus-1",
          "valueCodeableConcept": {
            "coding": [ {
              "system": "https://fhir.hl7.org.uk/STU3/StructureDefinition/Extension-CareConnect-NHSNumberVerificationStatus-1",
              "code": "01"
            } ]
          }
        } ],
        "system": "https://fhir.nhs.uk/Id/nhs-number",
        "value": "9990238359"
      } ],
      "active": true,
      "name": [ {
        "use": "official",
        "family": "Xxtestpatientdzadn",
        "given": [ "Scrdonotuse" ]
      } ],
      "telecom": [ {
        "system": "phone",
        "value": "tel:01204428013",
        "use": "home"
      }, {
        "system": "phone",
        "value": "tel:01204428013"
      } ],
      "gender": "female",
      "birthDate": "1965-02-17",
      "address": [ {
        "use": "home",
        "line": [ "Test Address", "Captain Lees Road", "Westhoughton", "Bolton", "Greater Manchester" ],
        "postalCode": "BL5 3UB"
      }, {
        "type": "physical",
        "line": [ "Whitchurch Hospital", "Claypit Street", "Whitchurch", "Shropshire" ],
        "postalCode": "SY13 1NT"
      } ],
      "generalPractitioner": [ {
        "reference": "urn:uuid:cfb479cb-3501-4c82-bc7c-16388ada06b4"
      } ]
    }
  }, {
    "fullUrl": "urn:uuid:cfb479cb-3501-4c82-bc7c-16388ada06b4",
    "resource": {
      "resourceType": "Organization",
      "id": "cfb479cb-3501-4c82-bc7c-16388ada06b4",
      "identifier": [ {
        "value": "F81718"
      } ],
      "type": [ {
        "text": "GP Practice"
      } ],
      "name": "LYDIA HOUSE PRACTICE"
    }
  }, {
    "fullUrl": "urn:uuid:38df0395-bd7c-413f-94b7-7c53e07a6d65",
    "resource": {
      "resourceType": "HealthcareService",
      "id": "38df0395-bd7c-413f-94b7-7c53e07a6d65",
      "active": true,
      "providedBy": {
        "reference": "urn:uuid:b2e850f8-a059-482e-94f0-911c7ea3e14a"
      },
      "location": [ {
        "reference": "urn:uuid:d095f573-2f54-4660-a2e0-f2fa91882ab8"
      } ],
      "name": "Repeat Caller - Live (v2)"
    }
  }, {
    "fullUrl": "urn:uuid:d095f573-2f54-4660-a2e0-f2fa91882ab8",
    "resource": {
      "resourceType": "Location",
      "id": "d095f573-2f54-4660-a2e0-f2fa91882ab8",
      "managingOrganization": {
        "reference": "urn:uuid:b2e850f8-a059-482e-94f0-911c7ea3e14a"
      }
    }
  }, {
    "fullUrl": "urn:uuid:b2e850f8-a059-482e-94f0-911c7ea3e14a",
    "resource": {
      "resourceType": "Organization",
      "id": "b2e850f8-a059-482e-94f0-911c7ea3e14a",
      "identifier": [ {
        "value": "RHY25"
      } ],
      "type": [ {
        "coding": [ {
          "code": "PRCP",
          "display": "Repeat Caller - Live (v2)"
        } ]
      } ],
      "name": "Repeat Caller - Live (v2)"
    }
  }, {
    "fullUrl": "urn:uuid:eddf4bf8-0500-4a88-b66c-935fe8518063",
    "resource": {
      "resourceType": "ReferralRequest",
      "id": "eddf4bf8-0500-4a88-b66c-935fe8518063",
      "status": "active",
      "intent": "plan",
      "priority": "routine",
      "subject": {
        "reference": "urn:uuid:33d2a845-44d7-464b-9214-bfe846051eba"
      },
      "context": {
        "reference": "urn:uuid:786c1a2d-a9ba-40ce-a3e4-de0c4102bcd9"
      },
      "occurrencePeriod": {
        "start": "2021-10-11T06:41:45+00:00",
        "end": "2021-10-11T07:41:45+00:00"
      },
      "authoredOn": "2020-10-30T09:44:13+00:00",
      "requester": {
        "agent": {
          "reference": "urn:uuid:3cfa142c-8f55-49e1-8259-2d4011bdfa77"
        },
        "onBehalfOf": {
          "reference": "urn:uuid:883c6a6a-aa94-42e9-be13-7a1c5e6d74e1"
        }
      },
      "recipient": [ {
        "reference": "urn:uuid:38df0395-bd7c-413f-94b7-7c53e07a6d65"
      } ],
      "reasonReference": [ {
        "reference": "urn:uuid:9c21d6b8-e6b8-4559-a27e-19d8bf45fede"
      } ],
      "supportingInfo": [ {
        "reference": "urn:uuid:af9cb468-9d9c-4c71-9573-c83bfaee668f"
      } ]
    }
  }, {
    "fullUrl": "urn:uuid:af9cb468-9d9c-4c71-9573-c83bfaee668f",
    "resource": {
      "resourceType": "ProcedureRequest",
      "id": "af9cb468-9d9c-4c71-9573-c83bfaee668f",
      "status": "active",
      "intent": "plan",
      "priority": "routine",
      "doNotPerform": false,
      "code": {
        "coding": [ {
          "system": "2.16.840.1.113883.2.1.3.2.4.17.325",
          "code": "Dx05",
          "display": "To contact a local service within 2 hours"
        } ]
      },
      "subject": {
        "reference": "urn:uuid:33d2a845-44d7-464b-9214-bfe846051eba"
      },
      "occurrencePeriod": {
        "start": "2021-10-11T06:41:45+00:00",
        "end": "2021-10-11T07:41:45+00:00"
      },
      "reasonReference": [ {
        "reference": "urn:uuid:9c21d6b8-e6b8-4559-a27e-19d8bf45fede"
      } ]
    }
  }, {
    "fullUrl": "urn:uuid:4ed60212-6a6d-41f7-8c4d-ebcc01e2e0c0",
    "resource": {
      "resourceType": "Composition",
      "id": "4ed60212-6a6d-41f7-8c4d-ebcc01e2e0c0",
      "identifier": {
        "use": "usual",
        "value": "499BEC45-8F01-498C-A61F-B8AC124ED50E"
      },
      "status": "final",
      "type": {
        "coding": [ {
          "system": "http://snomed.info/sct",
          "code": "371531000",
          "display": "Report of clinical encounter (record artifact)"
        } ]
      },
      "subject": {
        "reference": "urn:uuid:33d2a845-44d7-464b-9214-bfe846051eba"
      },
      "encounter": {
        "reference": "urn:uuid:786c1a2d-a9ba-40ce-a3e4-de0c4102bcd9"
      },
      "date": "2021-10-11T06:41:45+00:00",
      "author": [ {
        "reference": "urn:uuid:d1424be8-3190-4043-9300-b71306b5d317"
      } ],
      "title": "111 Report",
      "confidentiality": "N",
      "section": [ {
        "section": [ {
          "title": "Patient's Reported Condition",
          "text": {
            "status": "generated",
            "div": "<div xmlns=\"http://www.w3.org/1999/xhtml\">&lt;br/&gt;WHITCHURCH MIU TEST</div>"
          }
        }, {
          "title": "Pathways Disposition",
          "text": {
            "status": "generated",
            "div": "<div xmlns=\"http://www.w3.org/1999/xhtml\">&lt;br/&gt;\n                                                    &lt;br/&gt;\n                                                    &lt;br/&gt;To contact a local service within 2 hours (Dx05)\n\n                                                    Selected service: DO NOT BOOK APPOINTMENT - TESTING Whitchurch Minor Injury Unit</div>"
          }
        }, {
          "title": "Consultation Summary",
          "text": {
            "status": "generated",
            "div": "<div xmlns=\"http://www.w3.org/1999/xhtml\">&lt;br/&gt;\n                                                    &lt;br/&gt;\n                                                    &lt;br/&gt;\n                                                    &lt;br/&gt;\n                                                    &lt;br/&gt;InjuryBite or stingInsect or spider biteSting/bite more than 6 hours agoVery severe, deep limb pain</div>"
          }
        }, {
          "title": "Pathways Assessment",
          "text": {
            "status": "generated",
            "div": "<div xmlns=\"http://www.w3.org/1999/xhtml\">&lt;br/&gt;\n                                                    &lt;br/&gt;\n                                                    &lt;br/&gt;\n                                                    &lt;br/&gt;\n                                                    &lt;br/&gt;\n                                                    &lt;br/&gt;\n                                                    &lt;br/&gt;\n                                                    &lt;br/&gt;\n                                                    &lt;br/&gt;\n                                                    &lt;br/&gt;\n                                                    &lt;br/&gt;\n                                                    &lt;br/&gt;\n                                                    &lt;br/&gt;\n                                                    &lt;br/&gt;\n                                                    &lt;br/&gt;\n                                                    &lt;br/&gt;\n                                                    &lt;br/&gt;\n                                                    &lt;br/&gt;An injury or health problem was the reason for the contact.Heavy bleeding had not occurred in the previous 2 hours.An injury or symptom relating to an injury was the main problem.User Comments: TESTThere was a minor injury (a bite or sting).User Comments: TESTPathway selected - Bites and StingsThe bite or sting was caused by an insect or spider.User Comments: TESTThe sting/bite had not occurred within the previous 6 hours.The individual had been stung less than 10 timesThe individual was not experiencing nausea and/or vomiting.The sting did not involve the eyes, mouth or limb.There was no insect/insect part remaining attached to the skinThere was very severe, deep pain.Instructions given were: The individual needs to contact a local service within 2 hours.Directory of Services referral: DO NOT BOOK APPOINTMENT - TESTING Whitchurch Minor Injury UnitAdvice given:\n                                                    Worsening</div>"
          }
        }, {
          "title": "Advice Given",
          "text": {
            "status": "generated",
            "div": "<div xmlns=\"http://www.w3.org/1999/xhtml\">&lt;br/&gt;\n                                                    &lt;br/&gt;If there are any new symptoms, or if the condition gets worse, changes or you have any other concerns, call us back.</div>"
          }
        }, {
          "title": "Special Patient Notes",
          "text": {
            "status": "generated",
            "div": "<div xmlns=\"http://www.w3.org/1999/xhtml\">&lt;content styleCode=&quot;bold&quot;&gt;Note:&lt;/content&gt;\n                                                    &lt;br/&gt;\n                                                    &lt;content&gt;TEST NOTE West Midlands Single Instance&lt;/content&gt;\n                                                    &lt;br/&gt;\n                                                    &lt;br/&gt;Special Notes from an external system were flagged as being present for this patient.</div>"
          }
        } ]
      }, {
        "title": "ReferralRequest",
        "entry": [ {
          "reference": "urn:uuid:eddf4bf8-0500-4a88-b66c-935fe8518063"
        } ]
      }, {
        "title": "QuestionnaireResponse",
        "entry": [ {
          "reference": "urn:uuid:b734a81c-2181-4285-8474-223ffc8d12c8"
        } ]
      }, {
        "title": "QuestionnaireResponse",
        "entry": [ {
          "reference": "urn:uuid:39b96683-5685-4fe5-a7ee-0e04abab15d7"
        } ]
      }, {
        "title": "QuestionnaireResponse",
        "entry": [ {
          "reference": "urn:uuid:3e272aff-74bd-46ce-8dae-450574458425"
        } ]
      }, {
        "title": "QuestionnaireResponse",
        "entry": [ {
          "reference": "urn:uuid:1c8ffe71-16f7-416b-9ea9-f09eb1dfdf5b"
        } ]
      }, {
        "title": "QuestionnaireResponse",
        "entry": [ {
          "reference": "urn:uuid:2023dfd4-26b9-47dd-9867-d25804102ba8"
        } ]
      }, {
        "title": "QuestionnaireResponse",
        "entry": [ {
          "reference": "urn:uuid:f968b839-4a27-4cd2-b811-23a15080841f"
        } ]
      }, {
        "title": "QuestionnaireResponse",
        "entry": [ {
          "reference": "urn:uuid:d040ef96-f4e3-4e57-be89-70e189799606"
        } ]
      }, {
        "title": "QuestionnaireResponse",
        "entry": [ {
          "reference": "urn:uuid:fe1a750a-2d8f-4489-9c96-37d8e8297f20"
        } ]
      }, {
        "title": "QuestionnaireResponse",
        "entry": [ {
          "reference": "urn:uuid:f7986f14-276c-456b-b307-e90d377efc63"
        } ]
      }, {
        "title": "QuestionnaireResponse",
        "entry": [ {
          "reference": "urn:uuid:213ec5eb-ca30-4689-a66f-cd425ee66fcf"
        } ]
      }, {
        "title": "QuestionnaireResponse",
        "entry": [ {
          "reference": "urn:uuid:30dd27dd-f543-4ed1-af0c-45a0d86f8c44"
        } ]
      }, {
        "title": "QuestionnaireResponse",
        "entry": [ {
          "reference": "urn:uuid:cf6f9187-8165-4e47-a0e8-4ad0aa72073a"
        } ]
      }, {
        "title": "QuestionnaireResponse",
        "entry": [ {
          "reference": "urn:uuid:c36ccf4d-c36d-418a-9377-87abe921da20"
        } ]
      }, {
        "title": "QuestionnaireResponse",
        "entry": [ {
          "reference": "urn:uuid:fe904205-7ec8-4e55-aae8-23ed135dad1c"
        } ]
      }, {
        "title": "QuestionnaireResponse",
        "entry": [ {
          "reference": "urn:uuid:1accc6aa-f4cf-4d8b-aedc-ed123fb07d43"
        } ]
      }, {
        "title": "QuestionnaireResponse",
        "entry": [ {
          "reference": "urn:uuid:9a62a905-ae72-469e-b66f-c0dde3cb6d64"
        } ]
      }, {
        "title": "QuestionnaireResponse",
        "entry": [ {
          "reference": "urn:uuid:f68efc92-199b-40de-a398-8af24c8c90dc"
        } ]
      }, {
        "title": "QuestionnaireResponse",
        "entry": [ {
          "reference": "urn:uuid:ccccf980-9279-4c03-a67e-d76e2b5e3f6d"
        } ]
      }, {
        "title": "QuestionnaireResponse",
        "entry": [ {
          "reference": "urn:uuid:bdd24f51-688b-4400-9210-b9d916138ddd"
        } ]
      }, {
        "title": "QuestionnaireResponse",
        "entry": [ {
          "reference": "urn:uuid:f1175357-3cc7-42b8-bdef-4394686672f5"
        } ]
      }, {
        "title": "QuestionnaireResponse",
        "entry": [ {
          "reference": "urn:uuid:fc364e25-8d25-42e9-9b8b-1f82da927fdf"
        } ]
      }, {
        "title": "QuestionnaireResponse",
        "entry": [ {
          "reference": "urn:uuid:d29b58c9-f535-4908-afb9-366b6c118b21"
        } ]
      } ]
    }
  }, {
    "fullUrl": "urn:uuid:cc30a505-bef0-4eca-8ac7-0f20a259ea04",
    "resource": {
      "resourceType": "Consent",
      "id": "cc30a505-bef0-4eca-8ac7-0f20a259ea04",
      "identifier": {
        "use": "usual",
        "value": "499BEC45-8F01-498C-A61F-B8AC124ED50E"
      },
      "status": "active",
      "patient": {
        "reference": "urn:uuid:33d2a845-44d7-464b-9214-bfe846051eba"
      },
      "period": {
        "start": "2025-10-30T09:45:22+00:00"
      },
      "consentingParty": [ {
        "reference": "urn:uuid:33d2a845-44d7-464b-9214-bfe846051eba"
      } ],
      "action": [ {
        "coding": [ {
          "system": "http://snomed.info/sct",
          "code": "425691002",
          "display": "Consent given for electronic record sharing"
        } ],
        "text": "Consent given for electronic record sharing"
      } ],
      "organization": [ {
        "reference": "urn:uuid:883c6a6a-aa94-42e9-be13-7a1c5e6d74e1"
      } ],
      "policyRule": "http://hl7.org/fhir/ConsentPolicy/opt-out",
      "data": [ {
        "meaning": "related",
        "reference": {
          "reference": "urn:uuid:786c1a2d-a9ba-40ce-a3e4-de0c4102bcd9"
        }
      } ]
    }
  }, {
    "fullUrl": "urn:uuid:9c21d6b8-e6b8-4559-a27e-19d8bf45fede",
    "resource": {
      "resourceType": "Condition",
      "id": "9c21d6b8-e6b8-4559-a27e-19d8bf45fede",
      "clinicalStatus": "active",
      "verificationStatus": "unknown",
      "subject": {
        "reference": "urn:uuid:33d2a845-44d7-464b-9214-bfe846051eba"
      },
      "context": {
        "reference": "urn:uuid:786c1a2d-a9ba-40ce-a3e4-de0c4102bcd9"
      },
      "evidence": [ {
        "detail": [ {
          "reference": "urn:uuid:b734a81c-2181-4285-8474-223ffc8d12c8"
        } ]
      }, {
        "detail": [ {
          "reference": "urn:uuid:39b96683-5685-4fe5-a7ee-0e04abab15d7"
        } ]
      }, {
        "detail": [ {
          "reference": "urn:uuid:3e272aff-74bd-46ce-8dae-450574458425"
        } ]
      }, {
        "detail": [ {
          "reference": "urn:uuid:1c8ffe71-16f7-416b-9ea9-f09eb1dfdf5b"
        } ]
      }, {
        "detail": [ {
          "reference": "urn:uuid:2023dfd4-26b9-47dd-9867-d25804102ba8"
        } ]
      }, {
        "detail": [ {
          "reference": "urn:uuid:f968b839-4a27-4cd2-b811-23a15080841f"
        } ]
      }, {
        "detail": [ {
          "reference": "urn:uuid:d040ef96-f4e3-4e57-be89-70e189799606"
        } ]
      }, {
        "detail": [ {
          "reference": "urn:uuid:fe1a750a-2d8f-4489-9c96-37d8e8297f20"
        } ]
      }, {
        "detail": [ {
          "reference": "urn:uuid:f7986f14-276c-456b-b307-e90d377efc63"
        } ]
      }, {
        "detail": [ {
          "reference": "urn:uuid:213ec5eb-ca30-4689-a66f-cd425ee66fcf"
        } ]
      }, {
        "detail": [ {
          "reference": "urn:uuid:30dd27dd-f543-4ed1-af0c-45a0d86f8c44"
        } ]
      }, {
        "detail": [ {
          "reference": "urn:uuid:cf6f9187-8165-4e47-a0e8-4ad0aa72073a"
        } ]
      }, {
        "detail": [ {
          "reference": "urn:uuid:c36ccf4d-c36d-418a-9377-87abe921da20"
        } ]
      }, {
        "detail": [ {
          "reference": "urn:uuid:fe904205-7ec8-4e55-aae8-23ed135dad1c"
        } ]
      }, {
        "detail": [ {
          "reference": "urn:uuid:1accc6aa-f4cf-4d8b-aedc-ed123fb07d43"
        } ]
      }, {
        "detail": [ {
          "reference": "urn:uuid:9a62a905-ae72-469e-b66f-c0dde3cb6d64"
        } ]
      }, {
        "detail": [ {
          "reference": "urn:uuid:f68efc92-199b-40de-a398-8af24c8c90dc"
        } ]
      }, {
        "detail": [ {
          "reference": "urn:uuid:ccccf980-9279-4c03-a67e-d76e2b5e3f6d"
        } ]
      }, {
        "detail": [ {
          "reference": "urn:uuid:bdd24f51-688b-4400-9210-b9d916138ddd"
        } ]
      }, {
        "detail": [ {
          "reference": "urn:uuid:f1175357-3cc7-42b8-bdef-4394686672f5"
        } ]
      }, {
        "detail": [ {
          "reference": "urn:uuid:fc364e25-8d25-42e9-9b8b-1f82da927fdf"
        } ]
      }, {
        "detail": [ {
          "reference": "urn:uuid:d29b58c9-f535-4908-afb9-366b6c118b21"
        } ]
      } ]
    }
  }, {
    "fullUrl": "urn:uuid:b734a81c-2181-4285-8474-223ffc8d12c8",
    "resource": {
      "resourceType": "QuestionnaireResponse",
      "id": "b734a81c-2181-4285-8474-223ffc8d12c8",
      "identifier": {
        "value": "1193164"
      },
      "questionnaire": {
        "reference": "urn:uuid:b1f0da12-05a3-40c0-803d-e1ace3a1d662"
      },
      "status": "completed",
      "subject": {
        "reference": "urn:uuid:33d2a845-44d7-464b-9214-bfe846051eba"
      },
      "context": {
        "reference": "urn:uuid:786c1a2d-a9ba-40ce-a3e4-de0c4102bcd9"
      },
      "authored": "2020-10-30T09:45:23+00:00",
      "item": [ {
        "linkId": "Tx220074",
        "text": "What is the reason for the contact?",
        "answer": [ {
          "valueString": "an injury or other health problem"
        } ]
      } ]
    }
  }, {
    "fullUrl": "urn:uuid:b1f0da12-05a3-40c0-803d-e1ace3a1d662",
    "resource": {
      "resourceType": "Questionnaire",
      "id": "b1f0da12-05a3-40c0-803d-e1ace3a1d662",
      "identifier": [ {
        "value": "1193164"
      } ],
      "version": "2020-10-30T09:45:23.026Z",
      "status": "active",
      "experimental": false,
      "date": "2020-10-30T09:45:23+00:00",
      "publisher": "User ID: 'HOLDENR' User name: 'Rachael Holden' User skill set: 'T3'",
      "lastReviewDate": "2020-10-30",
      "subjectType": [ "Patient" ],
      "item": [ {
        "linkId": "1193164",
        "prefix": "5",
        "text": "What is the reason for the contact?",
        "type": "choice",
        "required": true,
        "repeats": false,
        "option": [ {
          "valueString": "an injury or other health problem, Selected: true"
        }, {
          "valueString": "labour or childbirth, Selected: false"
        }, {
          "valueString": "a need to access another healthcare service, Selected: false"
        }, {
          "valueString": "a healthcare professional requesting contact with another clinician, Selected: false"
        }, {
          "valueString": "a report of results or tests, Selected: false"
        }, {
          "valueString": "a possible failure of contraception, Selected: false"
        }, {
          "valueString": "more, Selected: false"
        } ]
      } ]
    }
  }, {
    "fullUrl": "urn:uuid:39b96683-5685-4fe5-a7ee-0e04abab15d7",
    "resource": {
      "resourceType": "QuestionnaireResponse",
      "id": "39b96683-5685-4fe5-a7ee-0e04abab15d7",
      "identifier": {
        "value": "1193164"
      },
      "questionnaire": {
        "reference": "urn:uuid:6eb905c5-647b-41b7-9f99-e9b1df986729"
      },
      "status": "completed",
      "subject": {
        "reference": "urn:uuid:33d2a845-44d7-464b-9214-bfe846051eba"
      },
      "context": {
        "reference": "urn:uuid:786c1a2d-a9ba-40ce-a3e4-de0c4102bcd9"
      },
      "authored": "2020-10-30T09:45:23+00:00",
      "item": [ {
        "linkId": "Tx221807",
        "text": "STRING:to'Immediatethreatstolife(SPA/OOHversion)'-'Majorbloodloss'stem",
        "answer": [ {
          "valueString": "\"present\""
        } ]
      } ]
    }
  }, {
    "fullUrl": "urn:uuid:6eb905c5-647b-41b7-9f99-e9b1df986729",
    "resource": {
      "resourceType": "Questionnaire",
      "id": "6eb905c5-647b-41b7-9f99-e9b1df986729",
      "identifier": [ {
        "value": "1193164"
      } ],
      "version": "2020-10-30T09:45:23.026Z",
      "status": "active",
      "experimental": false,
      "date": "2020-10-30T09:45:23+00:00",
      "publisher": "User ID: 'HOLDENR' User name: 'Rachael Holden' User skill set: 'T3'",
      "lastReviewDate": "2020-10-30",
      "subjectType": [ "Patient" ],
      "item": [ {
        "linkId": "1193164",
        "prefix": "200",
        "text": "STRING:to'Immediatethreatstolife(SPA/OOHversion)'-'Majorbloodloss'stem",
        "type": "choice",
        "required": true,
        "repeats": false,
        "option": [ {
          "valueString": "\"present\", Selected: true"
        } ]
      } ]
    }
  }, {
    "fullUrl": "urn:uuid:3e272aff-74bd-46ce-8dae-450574458425",
    "resource": {
      "resourceType": "QuestionnaireResponse",
      "id": "3e272aff-74bd-46ce-8dae-450574458425",
      "identifier": {
        "value": "1193164"
      },
      "questionnaire": {
        "reference": "urn:uuid:61353840-3e07-463d-8425-0aa8b1c0a9b4"
      },
      "status": "completed",
      "subject": {
        "reference": "urn:uuid:33d2a845-44d7-464b-9214-bfe846051eba"
      },
      "context": {
        "reference": "urn:uuid:786c1a2d-a9ba-40ce-a3e4-de0c4102bcd9"
      },
      "authored": "2020-10-30T09:45:23+00:00"
    }
  }, {
    "fullUrl": "urn:uuid:61353840-3e07-463d-8425-0aa8b1c0a9b4",
    "resource": {
      "resourceType": "Questionnaire",
      "id": "61353840-3e07-463d-8425-0aa8b1c0a9b4",
      "identifier": [ {
        "value": "1193164"
      } ],
      "version": "2020-10-30T09:45:23.026Z",
      "status": "active",
      "experimental": false,
      "date": "2020-10-30T09:45:23+00:00",
      "publisher": "User ID: 'HOLDENR' User name: 'Rachael Holden' User skill set: 'T3'",
      "lastReviewDate": "2020-10-30",
      "subjectType": [ "Patient" ]
    }
  }, {
    "fullUrl": "urn:uuid:1c8ffe71-16f7-416b-9ea9-f09eb1dfdf5b",
    "resource": {
      "resourceType": "QuestionnaireResponse",
      "id": "1c8ffe71-16f7-416b-9ea9-f09eb1dfdf5b",
      "identifier": {
        "value": "1193164"
      },
      "questionnaire": {
        "reference": "urn:uuid:8d969ddb-3565-4835-9303-cf768170a93c"
      },
      "status": "completed",
      "subject": {
        "reference": "urn:uuid:33d2a845-44d7-464b-9214-bfe846051eba"
      },
      "context": {
        "reference": "urn:uuid:786c1a2d-a9ba-40ce-a3e4-de0c4102bcd9"
      },
      "authored": "2020-10-30T09:45:23+00:00",
      "item": [ {
        "linkId": "Tx221799",
        "text": "STRING:injury,illnessorlabourestablishedinEntryFlow",
        "answer": [ {
          "valueString": "\"present\""
        } ]
      } ]
    }
  }, {
    "fullUrl": "urn:uuid:8d969ddb-3565-4835-9303-cf768170a93c",
    "resource": {
      "resourceType": "Questionnaire",
      "id": "8d969ddb-3565-4835-9303-cf768170a93c",
      "identifier": [ {
        "value": "1193164"
      } ],
      "version": "2020-10-30T09:45:23.026Z",
      "status": "active",
      "experimental": false,
      "date": "2020-10-30T09:45:23+00:00",
      "publisher": "User ID: 'HOLDENR' User name: 'Rachael Holden' User skill set: 'T3'",
      "lastReviewDate": "2020-10-30",
      "subjectType": [ "Patient" ],
      "item": [ {
        "linkId": "1193164",
        "prefix": "0",
        "text": "STRING:injury,illnessorlabourestablishedinEntryFlow",
        "type": "choice",
        "required": true,
        "repeats": false,
        "option": [ {
          "valueString": "\"present\", Selected: true"
        } ]
      } ]
    }
  }, {
    "fullUrl": "urn:uuid:2023dfd4-26b9-47dd-9867-d25804102ba8",
    "resource": {
      "resourceType": "QuestionnaireResponse",
      "id": "2023dfd4-26b9-47dd-9867-d25804102ba8",
      "identifier": {
        "value": "1193164"
      },
      "questionnaire": {
        "reference": "urn:uuid:bd4eac0d-2e1a-4905-bc02-7ccebec8788c"
      },
      "status": "completed",
      "subject": {
        "reference": "urn:uuid:33d2a845-44d7-464b-9214-bfe846051eba"
      },
      "context": {
        "reference": "urn:uuid:786c1a2d-a9ba-40ce-a3e4-de0c4102bcd9"
      },
      "authored": "2020-10-30T09:45:23+00:00",
      "item": [ {
        "linkId": "Tx224120",
        "text": "Have you been bleeding RED BLOOD very heavily IN THE LAST 2 HOURS?",
        "answer": [ {
          "valueString": "no"
        } ]
      } ]
    }
  }, {
    "fullUrl": "urn:uuid:bd4eac0d-2e1a-4905-bc02-7ccebec8788c",
    "resource": {
      "resourceType": "Questionnaire",
      "id": "bd4eac0d-2e1a-4905-bc02-7ccebec8788c",
      "identifier": [ {
        "value": "1193164"
      } ],
      "version": "2020-10-30T09:45:23.026Z",
      "status": "active",
      "experimental": false,
      "date": "2020-10-30T09:45:23+00:00",
      "publisher": "User ID: 'HOLDENR' User name: 'Rachael Holden' User skill set: 'T3'",
      "lastReviewDate": "2020-10-30",
      "subjectType": [ "Patient" ],
      "item": [ {
        "linkId": "1193164",
        "prefix": "10100",
        "text": "Have you been bleeding RED BLOOD very heavily IN THE LAST 2 HOURS?",
        "type": "choice",
        "required": true,
        "repeats": false,
        "option": [ {
          "valueString": "yes, Selected: false"
        }, {
          "valueString": "not sure, Selected: false"
        }, {
          "valueString": "no, Selected: true"
        } ]
      } ]
    }
  }, {
    "fullUrl": "urn:uuid:f968b839-4a27-4cd2-b811-23a15080841f",
    "resource": {
      "resourceType": "QuestionnaireResponse",
      "id": "f968b839-4a27-4cd2-b811-23a15080841f",
      "identifier": {
        "value": "1193164"
      },
      "questionnaire": {
        "reference": "urn:uuid:e8b0f0e3-3f72-47b9-9704-d505499f5bd4"
      },
      "status": "completed",
      "subject": {
        "reference": "urn:uuid:33d2a845-44d7-464b-9214-bfe846051eba"
      },
      "context": {
        "reference": "urn:uuid:786c1a2d-a9ba-40ce-a3e4-de0c4102bcd9"
      },
      "authored": "2020-10-30T09:45:23+00:00",
      "item": [ {
        "linkId": "Tx221343",
        "text": "SocialConcernsExcluded",
        "answer": [ {
          "valueString": "==\"present\""
        } ]
      } ]
    }
  }, {
    "fullUrl": "urn:uuid:e8b0f0e3-3f72-47b9-9704-d505499f5bd4",
    "resource": {
      "resourceType": "Questionnaire",
      "id": "e8b0f0e3-3f72-47b9-9704-d505499f5bd4",
      "identifier": [ {
        "value": "1193164"
      } ],
      "version": "2020-10-30T09:45:23.026Z",
      "status": "active",
      "experimental": false,
      "date": "2020-10-30T09:45:23+00:00",
      "publisher": "User ID: 'HOLDENR' User name: 'Rachael Holden' User skill set: 'T3'",
      "lastReviewDate": "2020-10-30",
      "subjectType": [ "Patient" ],
      "item": [ {
        "linkId": "1193164",
        "prefix": "1100",
        "text": "SocialConcernsExcluded",
        "type": "choice",
        "required": true,
        "repeats": false,
        "option": [ {
          "valueString": "==\"present\", Selected: true"
        }, {
          "valueString": "*, Selected: false"
        } ]
      } ]
    }
  }, {
    "fullUrl": "urn:uuid:d040ef96-f4e3-4e57-be89-70e189799606",
    "resource": {
      "resourceType": "QuestionnaireResponse",
      "id": "d040ef96-f4e3-4e57-be89-70e189799606",
      "identifier": {
        "value": "1193164"
      },
      "questionnaire": {
        "reference": "urn:uuid:3f65c4b4-602e-42f1-a2b0-ba04d7c4d16e"
      },
      "status": "completed",
      "subject": {
        "reference": "urn:uuid:33d2a845-44d7-464b-9214-bfe846051eba"
      },
      "context": {
        "reference": "urn:uuid:786c1a2d-a9ba-40ce-a3e4-de0c4102bcd9"
      },
      "authored": "2020-10-30T09:45:23+00:00",
      "item": [ {
        "linkId": "Tx130011",
        "text": "What is the main problem?",
        "answer": [ {
          "valueString": "injury (specify)"
        } ]
      } ]
    }
  }, {
    "fullUrl": "urn:uuid:3f65c4b4-602e-42f1-a2b0-ba04d7c4d16e",
    "resource": {
      "resourceType": "Questionnaire",
      "id": "3f65c4b4-602e-42f1-a2b0-ba04d7c4d16e",
      "identifier": [ {
        "value": "1193164"
      } ],
      "version": "2020-10-30T09:45:23.026Z",
      "status": "active",
      "experimental": false,
      "date": "2020-10-30T09:45:23+00:00",
      "publisher": "User ID: 'HOLDENR' User name: 'Rachael Holden' User skill set: 'T3'",
      "lastReviewDate": "2020-10-30",
      "subjectType": [ "Patient" ],
      "item": [ {
        "linkId": "1193164",
        "prefix": "2300",
        "text": "What is the main problem?",
        "type": "choice",
        "required": true,
        "repeats": false,
        "option": [ {
          "valueString": "the individual has been told to follow a particular course of action (specify), Selected: false"
        }, {
          "valueString": "the individual is an identified frequent caller, Selected: false"
        }, {
          "valueString": "injury (specify), Selected: true"
        }, {
          "valueString": "illness or other health problem (specify), Selected: false"
        }, {
          "valueString": "child protection/vulnerable adult concern, Selected: false"
        }, {
          "valueString": "social or domestic emergency, Selected: false"
        }, {
          "valueString": "the environment potentially poses an immediate threat to life (specify), Selected: false"
        } ]
      } ]
    }
  }, {
    "fullUrl": "urn:uuid:fe1a750a-2d8f-4489-9c96-37d8e8297f20",
    "resource": {
      "resourceType": "QuestionnaireResponse",
      "id": "fe1a750a-2d8f-4489-9c96-37d8e8297f20",
      "identifier": {
        "value": "1193164"
      },
      "questionnaire": {
        "reference": "urn:uuid:d2742d3a-0d26-4a2f-bb1b-d715175f304b"
      },
      "status": "completed",
      "subject": {
        "reference": "urn:uuid:33d2a845-44d7-464b-9214-bfe846051eba"
      },
      "context": {
        "reference": "urn:uuid:786c1a2d-a9ba-40ce-a3e4-de0c4102bcd9"
      },
      "authored": "2020-10-30T09:45:23+00:00",
      "item": [ {
        "linkId": "Tx224119",
        "text": "FROM WHAT YOU HAVE HEARD IS THIS A MINOR INJURY?",
        "answer": [ {
          "valueString": "yes - a minor bite or sting (specify)"
        } ]
      } ]
    }
  }, {
    "fullUrl": "urn:uuid:d2742d3a-0d26-4a2f-bb1b-d715175f304b",
    "resource": {
      "resourceType": "Questionnaire",
      "id": "d2742d3a-0d26-4a2f-bb1b-d715175f304b",
      "identifier": [ {
        "value": "1193164"
      } ],
      "version": "2020-10-30T09:45:23.026Z",
      "status": "active",
      "experimental": false,
      "date": "2020-10-30T09:45:23+00:00",
      "publisher": "User ID: 'HOLDENR' User name: 'Rachael Holden' User skill set: 'T3'",
      "lastReviewDate": "2020-10-30",
      "subjectType": [ "Patient" ],
      "item": [ {
        "linkId": "1193164",
        "prefix": "15000",
        "text": "FROM WHAT YOU HAVE HEARD IS THIS A MINOR INJURY?",
        "type": "choice",
        "required": true,
        "repeats": false,
        "option": [ {
          "valueString": "yes - a minor bite or sting (specify), Selected: true"
        }, {
          "valueString": "yes - a scratch, graze or minor wound, Selected: false"
        }, {
          "valueString": "yes - skin minor foreign body or skin glued, Selected: false"
        }, {
          "valueString": "yes - trauma blisters, Selected: false"
        }, {
          "valueString": "yes - a single finger or toe injury, Selected: false"
        }, {
          "valueString": "not sure, Selected: false"
        }, {
          "valueString": "no, Selected: false"
        } ]
      } ]
    }
  }, {
    "fullUrl": "urn:uuid:f7986f14-276c-456b-b307-e90d377efc63",
    "resource": {
      "resourceType": "QuestionnaireResponse",
      "id": "f7986f14-276c-456b-b307-e90d377efc63",
      "identifier": {
        "value": "1193164"
      },
      "questionnaire": {
        "reference": "urn:uuid:d082c558-dc26-4d7b-a080-7ef07b911b3a"
      },
      "status": "completed",
      "subject": {
        "reference": "urn:uuid:33d2a845-44d7-464b-9214-bfe846051eba"
      },
      "context": {
        "reference": "urn:uuid:786c1a2d-a9ba-40ce-a3e4-de0c4102bcd9"
      },
      "authored": "2020-10-30T09:45:23+00:00",
      "item": [ {
        "linkId": "Tx225125",
        "text": "SYSTEM_INJURYMODULE",
        "answer": [ {
          "valueString": "==\"injurymodule\""
        } ]
      } ]
    }
  }, {
    "fullUrl": "urn:uuid:d082c558-dc26-4d7b-a080-7ef07b911b3a",
    "resource": {
      "resourceType": "Questionnaire",
      "id": "d082c558-dc26-4d7b-a080-7ef07b911b3a",
      "identifier": [ {
        "value": "1193164"
      } ],
      "version": "2020-10-30T09:45:23.026Z",
      "status": "active",
      "experimental": false,
      "date": "2020-10-30T09:45:23+00:00",
      "publisher": "User ID: 'HOLDENR' User name: 'Rachael Holden' User skill set: 'T3'",
      "lastReviewDate": "2020-10-30",
      "subjectType": [ "Patient" ],
      "item": [ {
        "linkId": "1193164",
        "prefix": "23700",
        "text": "SYSTEM_INJURYMODULE",
        "type": "choice",
        "required": true,
        "repeats": false,
        "option": [ {
          "valueString": "==\"injurymodule\", Selected: true"
        }, {
          "valueString": "*, Selected: false"
        } ]
      } ]
    }
  }, {
    "fullUrl": "urn:uuid:213ec5eb-ca30-4689-a66f-cd425ee66fcf",
    "resource": {
      "resourceType": "QuestionnaireResponse",
      "id": "213ec5eb-ca30-4689-a66f-cd425ee66fcf",
      "identifier": {
        "value": "1193164"
      },
      "questionnaire": {
        "reference": "urn:uuid:e5775713-e967-4975-b92c-0ca418d13d87"
      },
      "status": "completed",
      "subject": {
        "reference": "urn:uuid:33d2a845-44d7-464b-9214-bfe846051eba"
      },
      "context": {
        "reference": "urn:uuid:786c1a2d-a9ba-40ce-a3e4-de0c4102bcd9"
      },
      "authored": "2020-10-30T09:45:23+00:00"
    }
  }, {
    "fullUrl": "urn:uuid:e5775713-e967-4975-b92c-0ca418d13d87",
    "resource": {
      "resourceType": "Questionnaire",
      "id": "e5775713-e967-4975-b92c-0ca418d13d87",
      "identifier": [ {
        "value": "1193164"
      } ],
      "version": "2020-10-30T09:45:23.026Z",
      "status": "active",
      "experimental": false,
      "date": "2020-10-30T09:45:23+00:00",
      "publisher": "User ID: 'HOLDENR' User name: 'Rachael Holden' User skill set: 'T3'",
      "lastReviewDate": "2020-10-30",
      "subjectType": [ "Patient" ]
    }
  }, {
    "fullUrl": "urn:uuid:30dd27dd-f543-4ed1-af0c-45a0d86f8c44",
    "resource": {
      "resourceType": "QuestionnaireResponse",
      "id": "30dd27dd-f543-4ed1-af0c-45a0d86f8c44",
      "identifier": {
        "value": "1193164"
      },
      "questionnaire": {
        "reference": "urn:uuid:87953680-974d-4f8a-9895-8fe7752b0b71"
      },
      "status": "completed",
      "subject": {
        "reference": "urn:uuid:33d2a845-44d7-464b-9214-bfe846051eba"
      },
      "context": {
        "reference": "urn:uuid:786c1a2d-a9ba-40ce-a3e4-de0c4102bcd9"
      },
      "authored": "2020-10-30T09:45:23+00:00",
      "item": [ {
        "linkId": "Tx3529",
        "text": "WHAT WAS THE CAUSE?",
        "answer": [ {
          "valueString": "an insect or spider (specify if known)"
        } ]
      } ]
    }
  }, {
    "fullUrl": "urn:uuid:87953680-974d-4f8a-9895-8fe7752b0b71",
    "resource": {
      "resourceType": "Questionnaire",
      "id": "87953680-974d-4f8a-9895-8fe7752b0b71",
      "identifier": [ {
        "value": "1193164"
      } ],
      "version": "2020-10-30T09:45:23.026Z",
      "status": "active",
      "experimental": false,
      "date": "2020-10-30T09:45:23+00:00",
      "publisher": "User ID: 'HOLDENR' User name: 'Rachael Holden' User skill set: 'T3'",
      "lastReviewDate": "2020-10-30",
      "subjectType": [ "Patient" ],
      "item": [ {
        "linkId": "1193164",
        "prefix": "0",
        "text": "WHAT WAS THE CAUSE?",
        "type": "choice",
        "required": true,
        "repeats": false,
        "option": [ {
          "valueString": "a person, Selected: false"
        }, {
          "valueString": "an animal (specify if known), Selected: false"
        }, {
          "valueString": "a snake (specify if known), Selected: false"
        }, {
          "valueString": "an insect or spider (specify if known), Selected: true"
        }, {
          "valueString": "stung by a water creature (specify if known), Selected: false"
        }, {
          "valueString": "bitten by a water creature (specify if known), Selected: false"
        }, {
          "valueString": "not sure, Selected: false"
        } ]
      } ]
    }
  }, {
    "fullUrl": "urn:uuid:cf6f9187-8165-4e47-a0e8-4ad0aa72073a",
    "resource": {
      "resourceType": "QuestionnaireResponse",
      "id": "cf6f9187-8165-4e47-a0e8-4ad0aa72073a",
      "identifier": {
        "value": "1193164"
      },
      "questionnaire": {
        "reference": "urn:uuid:d980857b-1253-4fdb-b845-2e2632694801"
      },
      "status": "completed",
      "subject": {
        "reference": "urn:uuid:33d2a845-44d7-464b-9214-bfe846051eba"
      },
      "context": {
        "reference": "urn:uuid:786c1a2d-a9ba-40ce-a3e4-de0c4102bcd9"
      },
      "authored": "2020-10-30T09:45:23+00:00"
    }
  }, {
    "fullUrl": "urn:uuid:d980857b-1253-4fdb-b845-2e2632694801",
    "resource": {
      "resourceType": "Questionnaire",
      "id": "d980857b-1253-4fdb-b845-2e2632694801",
      "identifier": [ {
        "value": "1193164"
      } ],
      "version": "2020-10-30T09:45:23.026Z",
      "status": "active",
      "experimental": false,
      "date": "2020-10-30T09:45:23+00:00",
      "publisher": "User ID: 'HOLDENR' User name: 'Rachael Holden' User skill set: 'T3'",
      "lastReviewDate": "2020-10-30",
      "subjectType": [ "Patient" ]
    }
  }, {
    "fullUrl": "urn:uuid:c36ccf4d-c36d-418a-9377-87abe921da20",
    "resource": {
      "resourceType": "QuestionnaireResponse",
      "id": "c36ccf4d-c36d-418a-9377-87abe921da20",
      "identifier": {
        "value": "1193164"
      },
      "questionnaire": {
        "reference": "urn:uuid:148f3962-3535-4d6d-9d73-1166454c7409"
      },
      "status": "completed",
      "subject": {
        "reference": "urn:uuid:33d2a845-44d7-464b-9214-bfe846051eba"
      },
      "context": {
        "reference": "urn:uuid:786c1a2d-a9ba-40ce-a3e4-de0c4102bcd9"
      },
      "authored": "2020-10-30T09:45:23+00:00",
      "item": [ {
        "linkId": "Tx220302",
        "text": "Did it happen WITHIN THE LAST 6 HOURS?",
        "answer": [ {
          "valueString": "no"
        } ]
      } ]
    }
  }, {
    "fullUrl": "urn:uuid:148f3962-3535-4d6d-9d73-1166454c7409",
    "resource": {
      "resourceType": "Questionnaire",
      "id": "148f3962-3535-4d6d-9d73-1166454c7409",
      "identifier": [ {
        "value": "1193164"
      } ],
      "version": "2020-10-30T09:45:23.026Z",
      "status": "active",
      "experimental": false,
      "date": "2020-10-30T09:45:23+00:00",
      "publisher": "User ID: 'HOLDENR' User name: 'Rachael Holden' User skill set: 'T3'",
      "lastReviewDate": "2020-10-30",
      "subjectType": [ "Patient" ],
      "item": [ {
        "linkId": "1193164",
        "prefix": "0",
        "text": "Did it happen WITHIN THE LAST 6 HOURS?",
        "type": "choice",
        "required": true,
        "repeats": false,
        "option": [ {
          "valueString": "yes, Selected: false"
        }, {
          "valueString": "not sure, Selected: false"
        }, {
          "valueString": "no, Selected: true"
        } ]
      } ]
    }
  }, {
    "fullUrl": "urn:uuid:fe904205-7ec8-4e55-aae8-23ed135dad1c",
    "resource": {
      "resourceType": "QuestionnaireResponse",
      "id": "fe904205-7ec8-4e55-aae8-23ed135dad1c",
      "identifier": {
        "value": "1193164"
      },
      "questionnaire": {
        "reference": "urn:uuid:997eb48d-9bec-4d5e-86ca-3023f95424f3"
      },
      "status": "completed",
      "subject": {
        "reference": "urn:uuid:33d2a845-44d7-464b-9214-bfe846051eba"
      },
      "context": {
        "reference": "urn:uuid:786c1a2d-a9ba-40ce-a3e4-de0c4102bcd9"
      },
      "authored": "2020-10-30T09:45:23+00:00",
      "item": [ {
        "linkId": "Tx3543",
        "text": "Have you been stung 10 or more times?",
        "answer": [ {
          "valueString": "no"
        } ]
      } ]
    }
  }, {
    "fullUrl": "urn:uuid:997eb48d-9bec-4d5e-86ca-3023f95424f3",
    "resource": {
      "resourceType": "Questionnaire",
      "id": "997eb48d-9bec-4d5e-86ca-3023f95424f3",
      "identifier": [ {
        "value": "1193164"
      } ],
      "version": "2020-10-30T09:45:23.026Z",
      "status": "active",
      "experimental": false,
      "date": "2020-10-30T09:45:23+00:00",
      "publisher": "User ID: 'HOLDENR' User name: 'Rachael Holden' User skill set: 'T3'",
      "lastReviewDate": "2020-10-30",
      "subjectType": [ "Patient" ],
      "item": [ {
        "linkId": "1193164",
        "prefix": "2900",
        "text": "Have you been stung 10 or more times?",
        "type": "choice",
        "required": true,
        "repeats": false,
        "option": [ {
          "valueString": "yes, Selected: false"
        }, {
          "valueString": "not sure, Selected: false"
        }, {
          "valueString": "no, Selected: true"
        } ]
      } ]
    }
  }, {
    "fullUrl": "urn:uuid:1accc6aa-f4cf-4d8b-aedc-ed123fb07d43",
    "resource": {
      "resourceType": "QuestionnaireResponse",
      "id": "1accc6aa-f4cf-4d8b-aedc-ed123fb07d43",
      "identifier": {
        "value": "1193164"
      },
      "questionnaire": {
        "reference": "urn:uuid:58b16281-fcc4-49d2-8c45-a2e3930b41c7"
      },
      "status": "completed",
      "subject": {
        "reference": "urn:uuid:33d2a845-44d7-464b-9214-bfe846051eba"
      },
      "context": {
        "reference": "urn:uuid:786c1a2d-a9ba-40ce-a3e4-de0c4102bcd9"
      },
      "authored": "2020-10-30T09:45:23+00:00",
      "item": [ {
        "linkId": "Tx3557",
        "text": "Have you got nausea or vomiting now?",
        "answer": [ {
          "valueString": "no"
        } ]
      } ]
    }
  }, {
    "fullUrl": "urn:uuid:58b16281-fcc4-49d2-8c45-a2e3930b41c7",
    "resource": {
      "resourceType": "Questionnaire",
      "id": "58b16281-fcc4-49d2-8c45-a2e3930b41c7",
      "identifier": [ {
        "value": "1193164"
      } ],
      "version": "2020-10-30T09:45:23.026Z",
      "status": "active",
      "experimental": false,
      "date": "2020-10-30T09:45:23+00:00",
      "publisher": "User ID: 'HOLDENR' User name: 'Rachael Holden' User skill set: 'T3'",
      "lastReviewDate": "2020-10-30",
      "subjectType": [ "Patient" ],
      "item": [ {
        "linkId": "1193164",
        "prefix": "3000",
        "text": "Have you got nausea or vomiting now?",
        "type": "choice",
        "required": true,
        "repeats": false,
        "option": [ {
          "valueString": "yes, Selected: false"
        }, {
          "valueString": "not sure, Selected: false"
        }, {
          "valueString": "no, Selected: true"
        } ]
      } ]
    }
  }, {
    "fullUrl": "urn:uuid:9a62a905-ae72-469e-b66f-c0dde3cb6d64",
    "resource": {
      "resourceType": "QuestionnaireResponse",
      "id": "9a62a905-ae72-469e-b66f-c0dde3cb6d64",
      "identifier": {
        "value": "1193164"
      },
      "questionnaire": {
        "reference": "urn:uuid:197b5ab9-806b-4a68-b826-7b151847e92f"
      },
      "status": "completed",
      "subject": {
        "reference": "urn:uuid:33d2a845-44d7-464b-9214-bfe846051eba"
      },
      "context": {
        "reference": "urn:uuid:786c1a2d-a9ba-40ce-a3e4-de0c4102bcd9"
      },
      "authored": "2020-10-30T09:45:23+00:00",
      "item": [ {
        "linkId": "Tx3561",
        "text": "Have you been bitten or stung in any of these areas?",
        "answer": [ {
          "valueString": "no"
        } ]
      } ]
    }
  }, {
    "fullUrl": "urn:uuid:197b5ab9-806b-4a68-b826-7b151847e92f",
    "resource": {
      "resourceType": "Questionnaire",
      "id": "197b5ab9-806b-4a68-b826-7b151847e92f",
      "identifier": [ {
        "value": "1193164"
      } ],
      "version": "2020-10-30T09:45:23.026Z",
      "status": "active",
      "experimental": false,
      "date": "2020-10-30T09:45:23+00:00",
      "publisher": "User ID: 'HOLDENR' User name: 'Rachael Holden' User skill set: 'T3'",
      "lastReviewDate": "2020-10-30",
      "subjectType": [ "Patient" ],
      "item": [ {
        "linkId": "1193164",
        "prefix": "3900",
        "text": "Have you been bitten or stung in any of these areas?",
        "type": "choice",
        "required": true,
        "repeats": false,
        "option": [ {
          "valueString": "the eyeball, Selected: false"
        }, {
          "valueString": "inside the mouth or on the lips, Selected: false"
        }, {
          "valueString": "limb, Selected: false"
        }, {
          "valueString": "not sure, Selected: false"
        }, {
          "valueString": "no, Selected: true"
        } ]
      } ]
    }
  }, {
    "fullUrl": "urn:uuid:f68efc92-199b-40de-a398-8af24c8c90dc",
    "resource": {
      "resourceType": "QuestionnaireResponse",
      "id": "f68efc92-199b-40de-a398-8af24c8c90dc",
      "identifier": {
        "value": "1193164"
      },
      "questionnaire": {
        "reference": "urn:uuid:cac67423-078e-4248-939e-57c5eeb63f2f"
      },
      "status": "completed",
      "subject": {
        "reference": "urn:uuid:33d2a845-44d7-464b-9214-bfe846051eba"
      },
      "context": {
        "reference": "urn:uuid:786c1a2d-a9ba-40ce-a3e4-de0c4102bcd9"
      },
      "authored": "2020-10-30T09:45:23+00:00",
      "item": [ {
        "linkId": "Tx3544",
        "text": "Is the insect or part of the insect still attached to the skin?",
        "answer": [ {
          "valueString": "no"
        } ]
      } ]
    }
  }, {
    "fullUrl": "urn:uuid:cac67423-078e-4248-939e-57c5eeb63f2f",
    "resource": {
      "resourceType": "Questionnaire",
      "id": "cac67423-078e-4248-939e-57c5eeb63f2f",
      "identifier": [ {
        "value": "1193164"
      } ],
      "version": "2020-10-30T09:45:23.026Z",
      "status": "active",
      "experimental": false,
      "date": "2020-10-30T09:45:23+00:00",
      "publisher": "User ID: 'HOLDENR' User name: 'Rachael Holden' User skill set: 'T3'",
      "lastReviewDate": "2020-10-30",
      "subjectType": [ "Patient" ],
      "item": [ {
        "linkId": "1193164",
        "prefix": "9400",
        "text": "Is the insect or part of the insect still attached to the skin?",
        "type": "choice",
        "required": true,
        "repeats": false,
        "option": [ {
          "valueString": "yes, Selected: false"
        }, {
          "valueString": "not sure, Selected: false"
        }, {
          "valueString": "no, Selected: true"
        } ]
      } ]
    }
  }, {
    "fullUrl": "urn:uuid:ccccf980-9279-4c03-a67e-d76e2b5e3f6d",
    "resource": {
      "resourceType": "QuestionnaireResponse",
      "id": "ccccf980-9279-4c03-a67e-d76e2b5e3f6d",
      "identifier": {
        "value": "1193164"
      },
      "questionnaire": {
        "reference": "urn:uuid:957234cc-805d-407b-a4c4-ada183b7aeb8"
      },
      "status": "completed",
      "subject": {
        "reference": "urn:uuid:33d2a845-44d7-464b-9214-bfe846051eba"
      },
      "context": {
        "reference": "urn:uuid:786c1a2d-a9ba-40ce-a3e4-de0c4102bcd9"
      },
      "authored": "2020-10-30T09:45:23+00:00",
      "item": [ {
        "linkId": "Tx1449",
        "text": "Have you got very severe pain deep inside the affected area?",
        "answer": [ {
          "valueString": "yes"
        } ]
      } ]
    }
  }, {
    "fullUrl": "urn:uuid:957234cc-805d-407b-a4c4-ada183b7aeb8",
    "resource": {
      "resourceType": "Questionnaire",
      "id": "957234cc-805d-407b-a4c4-ada183b7aeb8",
      "identifier": [ {
        "value": "1193164"
      } ],
      "version": "2020-10-30T09:45:23.026Z",
      "status": "active",
      "experimental": false,
      "date": "2020-10-30T09:45:23+00:00",
      "publisher": "User ID: 'HOLDENR' User name: 'Rachael Holden' User skill set: 'T3'",
      "lastReviewDate": "2020-10-30",
      "subjectType": [ "Patient" ],
      "item": [ {
        "linkId": "1193164",
        "prefix": "19700",
        "text": "Have you got very severe pain deep inside the affected area?",
        "type": "choice",
        "required": true,
        "repeats": false,
        "option": [ {
          "valueString": "yes, Selected: true"
        }, {
          "valueString": "not sure, Selected: false"
        }, {
          "valueString": "no, Selected: false"
        } ]
      } ]
    }
  }, {
    "fullUrl": "urn:uuid:bdd24f51-688b-4400-9210-b9d916138ddd",
    "resource": {
      "resourceType": "QuestionnaireResponse",
      "id": "bdd24f51-688b-4400-9210-b9d916138ddd",
      "identifier": {
        "value": "1193164"
      },
      "questionnaire": {
        "reference": "urn:uuid:9792d3cf-67a4-4364-a585-b9be613224b3"
      },
      "status": "completed",
      "subject": {
        "reference": "urn:uuid:33d2a845-44d7-464b-9214-bfe846051eba"
      },
      "context": {
        "reference": "urn:uuid:786c1a2d-a9ba-40ce-a3e4-de0c4102bcd9"
      },
      "authored": "2020-10-30T09:45:23+00:00",
      "item": [ {
        "linkId": "Tx221449",
        "text": "STRING:SDPCFullPrimaryCareassessmentandprescribingcapability",
        "answer": [ {
          "valueString": "\"PC full Primary Care assessment and prescribing capability\""
        } ]
      } ]
    }
  }, {
    "fullUrl": "urn:uuid:9792d3cf-67a4-4364-a585-b9be613224b3",
    "resource": {
      "resourceType": "Questionnaire",
      "id": "9792d3cf-67a4-4364-a585-b9be613224b3",
      "identifier": [ {
        "value": "1193164"
      } ],
      "version": "2020-10-30T09:45:23.026Z",
      "status": "active",
      "experimental": false,
      "date": "2020-10-30T09:45:23+00:00",
      "publisher": "User ID: 'HOLDENR' User name: 'Rachael Holden' User skill set: 'T3'",
      "lastReviewDate": "2020-10-30",
      "subjectType": [ "Patient" ],
      "item": [ {
        "linkId": "1193164",
        "prefix": "19900",
        "text": "STRING:SDPCFullPrimaryCareassessmentandprescribingcapability",
        "type": "choice",
        "required": true,
        "repeats": false,
        "option": [ {
          "valueString": "\"PC full Primary Care assessment and prescribing capability\", Selected: true"
        } ]
      } ]
    }
  }, {
    "fullUrl": "urn:uuid:f1175357-3cc7-42b8-bdef-4394686672f5",
    "resource": {
      "resourceType": "QuestionnaireResponse",
      "id": "f1175357-3cc7-42b8-bdef-4394686672f5",
      "identifier": {
        "value": "1193164"
      },
      "questionnaire": {
        "reference": "urn:uuid:607ab8cb-3e58-46fd-b5e3-3f5e4f9d53ad"
      },
      "status": "completed",
      "subject": {
        "reference": "urn:uuid:33d2a845-44d7-464b-9214-bfe846051eba"
      },
      "context": {
        "reference": "urn:uuid:786c1a2d-a9ba-40ce-a3e4-de0c4102bcd9"
      },
      "authored": "2020-10-30T09:45:23+00:00"
    }
  }, {
    "fullUrl": "urn:uuid:607ab8cb-3e58-46fd-b5e3-3f5e4f9d53ad",
    "resource": {
      "resourceType": "Questionnaire",
      "id": "607ab8cb-3e58-46fd-b5e3-3f5e4f9d53ad",
      "identifier": [ {
        "value": "1193164"
      } ],
      "version": "2020-10-30T09:45:23.026Z",
      "status": "active",
      "experimental": false,
      "date": "2020-10-30T09:45:23+00:00",
      "publisher": "User ID: 'HOLDENR' User name: 'Rachael Holden' User skill set: 'T3'",
      "lastReviewDate": "2020-10-30",
      "subjectType": [ "Patient" ]
    }
  }, {
    "fullUrl": "urn:uuid:fc364e25-8d25-42e9-9b8b-1f82da927fdf",
    "resource": {
      "resourceType": "QuestionnaireResponse",
      "id": "fc364e25-8d25-42e9-9b8b-1f82da927fdf",
      "identifier": {
        "value": "1193164"
      },
      "questionnaire": {
        "reference": "urn:uuid:f76b243a-c6a6-441c-9423-38c2737fa509"
      },
      "status": "completed",
      "subject": {
        "reference": "urn:uuid:33d2a845-44d7-464b-9214-bfe846051eba"
      },
      "context": {
        "reference": "urn:uuid:786c1a2d-a9ba-40ce-a3e4-de0c4102bcd9"
      },
      "authored": "2020-10-30T09:45:23+00:00"
    }
  }, {
    "fullUrl": "urn:uuid:f76b243a-c6a6-441c-9423-38c2737fa509",
    "resource": {
      "resourceType": "Questionnaire",
      "id": "f76b243a-c6a6-441c-9423-38c2737fa509",
      "identifier": [ {
        "value": "1193164"
      } ],
      "version": "2020-10-30T09:45:23.026Z",
      "status": "active",
      "experimental": false,
      "date": "2020-10-30T09:45:23+00:00",
      "publisher": "User ID: 'HOLDENR' User name: 'Rachael Holden' User skill set: 'T3'",
      "lastReviewDate": "2020-10-30",
      "subjectType": [ "Patient" ]
    }
  }, {
    "fullUrl": "urn:uuid:d29b58c9-f535-4908-afb9-366b6c118b21",
    "resource": {
      "resourceType": "QuestionnaireResponse",
      "id": "d29b58c9-f535-4908-afb9-366b6c118b21",
      "identifier": {
        "value": "1193164"
      },
      "questionnaire": {
        "reference": "urn:uuid:46255f98-d2fb-4dde-b592-b8cd2fa6150c"
      },
      "status": "completed",
      "subject": {
        "reference": "urn:uuid:33d2a845-44d7-464b-9214-bfe846051eba"
      },
      "context": {
        "reference": "urn:uuid:786c1a2d-a9ba-40ce-a3e4-de0c4102bcd9"
      },
      "authored": "2020-10-30T09:45:23+00:00"
    }
  }, {
    "fullUrl": "urn:uuid:46255f98-d2fb-4dde-b592-b8cd2fa6150c",
    "resource": {
      "resourceType": "Questionnaire",
      "id": "46255f98-d2fb-4dde-b592-b8cd2fa6150c",
      "identifier": [ {
        "value": "1193164"
      } ],
      "version": "2020-10-30T09:45:23.026Z",
      "status": "active",
      "experimental": false,
      "date": "2020-10-30T09:45:23+00:00",
      "publisher": "User ID: 'HOLDENR' User name: 'Rachael Holden' User skill set: 'T3'",
      "lastReviewDate": "2020-10-30",
      "subjectType": [ "Patient" ]
    }
  }, {
    "fullUrl": "urn:uuid:7e4b51f5-81c6-4088-9c08-37618a944d84",
    "resource": {
      "resourceType": "Observation",
      "id": "7e4b51f5-81c6-4088-9c08-37618a944d84",
      "status": "final",
      "code": {
        "coding": [ {
          "system": "http://snomed.info/sct",
          "code": "33962009",
          "display": "Presenting complaint"
        } ]
      },
      "subject": {
        "reference": "urn:uuid:33d2a845-44d7-464b-9214-bfe846051eba"
      },
      "context": {
        "reference": "urn:uuid:786c1a2d-a9ba-40ce-a3e4-de0c4102bcd9"
      }
    }
  }, {
    "fullUrl": "urn:uuid:8e1c5937-7d9e-4d0f-9bd1-124525124507",
    "resource": {
      "resourceType": "PractitionerRole",
      "id": "8e1c5937-7d9e-4d0f-9bd1-124525124507",
      "practitioner": {
        "reference": "urn:uuid:d1424be8-3190-4043-9300-b71306b5d317"
      },
      "organization": {
        "reference": "urn:uuid:81139588-a8b9-4c10-94fd-2e72c550b51c"
      },
      "code": [ {
        "coding": [ {
          "system": "2.16.840.1.113883.2.1.3.2.4.17.339",
          "code": "DOCTOR",
          "display": "Doctor"
        } ]
      } ]
    }
  }, {
    "fullUrl": "urn:uuid:81139588-a8b9-4c10-94fd-2e72c550b51c",
    "resource": {
      "resourceType": "Organization",
      "id": "81139588-a8b9-4c10-94fd-2e72c550b51c",
      "identifier": [ {
        "value": "RYA06"
      } ],
      "name": "WMAS - Navigation Point Call Centre (West Midlands Single Instance)"
    }
  }, {
    "fullUrl": "urn:uuid:71502480-91fc-4e7e-9701-78bba5e155d5",
    "resource": {
      "resourceType": "PractitionerRole",
      "id": "71502480-91fc-4e7e-9701-78bba5e155d5",
      "practitioner": {
        "reference": "urn:uuid:e5fe6960-2f2d-4560-8c64-ef613fc27720"
      },
      "organization": {
        "reference": "urn:uuid:1e8200f2-0158-4648-926c-d9a980da71c8"
      },
      "code": [ {
        "coding": [ {
          "system": "2.16.840.1.113883.2.1.3.2.4.17.196",
          "code": "R0010",
          "display": "Medical Director"
        } ]
      } ]
    }
  }, {
    "fullUrl": "urn:uuid:1e8200f2-0158-4648-926c-d9a980da71c8",
    "resource": {
      "resourceType": "Organization",
      "id": "1e8200f2-0158-4648-926c-d9a980da71c8",
      "identifier": [ {
        "value": "RYA06"
      } ],
      "name": "West Midlands Single Instance"
    }
  }, {
    "fullUrl": "urn:uuid:42cd2073-3136-4e9e-94fb-b65c0a18c7ec",
    "resource": {
      "resourceType": "RelatedPerson",
      "id": "42cd2073-3136-4e9e-94fb-b65c0a18c7ec",
      "patient": {
        "reference": "urn:uuid:33d2a845-44d7-464b-9214-bfe846051eba"
      },
      "relationship": {
        "coding": [ {
          "system": "http://hl7.org/fhir/v2/0131",
          "code": "C",
          "display": "Emergency Contact"
        } ]
      },
      "telecom": [ {
        "system": "phone",
        "value": "tel:01204428013"
      } ]
    }
  }, {
    "fullUrl": "urn:uuid:3cfa142c-8f55-49e1-8259-2d4011bdfa77",
    "resource": {
      "resourceType": "Device",
      "id": "3cfa142c-8f55-49e1-8259-2d4011bdfa77",
      "model": "111 Adaptor",
      "version": "1.0.0"
    }
  }, {
    "fullUrl": "urn:uuid:ad9755d7-dc83-47e0-8694-fdabb29d44ed",
    "resource": {
      "resourceType": "List",
      "id": "ad9755d7-dc83-47e0-8694-fdabb29d44ed",
      "status": "current",
      "mode": "working",
      "title": "111 Report List",
      "code": {
        "coding": [ {
          "system": "http://snomed.info/sct",
          "code": "225390008",
          "display": "Triage"
        } ]
      },
      "subject": {
        "reference": "urn:uuid:33d2a845-44d7-464b-9214-bfe846051eba"
      },
      "encounter": {
        "reference": "urn:uuid:786c1a2d-a9ba-40ce-a3e4-de0c4102bcd9"
      },
      "date": "2021-10-11T06:41:46+00:00",
      "source": {
        "reference": "urn:uuid:3cfa142c-8f55-49e1-8259-2d4011bdfa77"
      },
      "orderedBy": {
        "coding": [ {
          "system": "http://hl7.org/fhir/list-order",
          "code": "event-date",
          "display": "Sorted by Event Date"
        } ]
      },
      "entry": [ {
        "item": {
          "reference": "urn:uuid:9c21d6b8-e6b8-4559-a27e-19d8bf45fede"
        }
      }, {
        "item": {
          "reference": "urn:uuid:d1424be8-3190-4043-9300-b71306b5d317"
        }
      }, {
        "item": {
          "reference": "urn:uuid:5a47f72a-95b4-4434-8861-aaa3abbdcd48"
        }
      }, {
        "item": {
          "reference": "urn:uuid:81139588-a8b9-4c10-94fd-2e72c550b51c"
        }
      }, {
        "item": {
          "reference": "urn:uuid:42cd2073-3136-4e9e-94fb-b65c0a18c7ec"
        }
      }, {
        "item": {
          "reference": "urn:uuid:7e4b51f5-81c6-4088-9c08-37618a944d84"
        }
      }, {
        "item": {
          "reference": "urn:uuid:b2e850f8-a059-482e-94f0-911c7ea3e14a"
        }
      }, {
        "item": {
          "reference": "urn:uuid:e5fe6960-2f2d-4560-8c64-ef613fc27720"
        }
      }, {
        "item": {
          "reference": "urn:uuid:883c6a6a-aa94-42e9-be13-7a1c5e6d74e1"
        }
      }, {
        "item": {
          "reference": "urn:uuid:1e8200f2-0158-4648-926c-d9a980da71c8"
        }
      }, {
        "item": {
          "reference": "urn:uuid:cfb479cb-3501-4c82-bc7c-16388ada06b4"
        }
      }, {
        "item": {
          "reference": "urn:uuid:bdd24f51-688b-4400-9210-b9d916138ddd"
        }
      }, {
        "item": {
          "reference": "urn:uuid:9a62a905-ae72-469e-b66f-c0dde3cb6d64"
        }
      }, {
        "item": {
          "reference": "urn:uuid:9792d3cf-67a4-4364-a585-b9be613224b3"
        }
      }, {
        "item": {
          "reference": "urn:uuid:957234cc-805d-407b-a4c4-ada183b7aeb8"
        }
      }, {
        "item": {
          "reference": "urn:uuid:148f3962-3535-4d6d-9d73-1166454c7409"
        }
      }, {
        "item": {
          "reference": "urn:uuid:213ec5eb-ca30-4689-a66f-cd425ee66fcf"
        }
      }, {
        "item": {
          "reference": "urn:uuid:46255f98-d2fb-4dde-b592-b8cd2fa6150c"
        }
      }, {
        "item": {
          "reference": "urn:uuid:6eb905c5-647b-41b7-9f99-e9b1df986729"
        }
      }, {
        "item": {
          "reference": "urn:uuid:b734a81c-2181-4285-8474-223ffc8d12c8"
        }
      }, {
        "item": {
          "reference": "urn:uuid:e5775713-e967-4975-b92c-0ca418d13d87"
        }
      }, {
        "item": {
          "reference": "urn:uuid:3f65c4b4-602e-42f1-a2b0-ba04d7c4d16e"
        }
      }, {
        "item": {
          "reference": "urn:uuid:197b5ab9-806b-4a68-b826-7b151847e92f"
        }
      }, {
        "item": {
          "reference": "urn:uuid:d082c558-dc26-4d7b-a080-7ef07b911b3a"
        }
      }, {
        "item": {
          "reference": "urn:uuid:607ab8cb-3e58-46fd-b5e3-3f5e4f9d53ad"
        }
      }, {
        "item": {
          "reference": "urn:uuid:d29b58c9-f535-4908-afb9-366b6c118b21"
        }
      }, {
        "item": {
          "reference": "urn:uuid:1accc6aa-f4cf-4d8b-aedc-ed123fb07d43"
        }
      }, {
        "item": {
          "reference": "urn:uuid:1c8ffe71-16f7-416b-9ea9-f09eb1dfdf5b"
        }
      }, {
        "item": {
          "reference": "urn:uuid:2023dfd4-26b9-47dd-9867-d25804102ba8"
        }
      }, {
        "item": {
          "reference": "urn:uuid:f68efc92-199b-40de-a398-8af24c8c90dc"
        }
      }, {
        "item": {
          "reference": "urn:uuid:58b16281-fcc4-49d2-8c45-a2e3930b41c7"
        }
      }, {
        "item": {
          "reference": "urn:uuid:d040ef96-f4e3-4e57-be89-70e189799606"
        }
      }, {
        "item": {
          "reference": "urn:uuid:997eb48d-9bec-4d5e-86ca-3023f95424f3"
        }
      }, {
        "item": {
          "reference": "urn:uuid:f1175357-3cc7-42b8-bdef-4394686672f5"
        }
      }, {
        "item": {
          "reference": "urn:uuid:61353840-3e07-463d-8425-0aa8b1c0a9b4"
        }
      }, {
        "item": {
          "reference": "urn:uuid:3e272aff-74bd-46ce-8dae-450574458425"
        }
      }, {
        "item": {
          "reference": "urn:uuid:fe904205-7ec8-4e55-aae8-23ed135dad1c"
        }
      }, {
        "item": {
          "reference": "urn:uuid:87953680-974d-4f8a-9895-8fe7752b0b71"
        }
      }, {
        "item": {
          "reference": "urn:uuid:fe1a750a-2d8f-4489-9c96-37d8e8297f20"
        }
      }, {
        "item": {
          "reference": "urn:uuid:fc364e25-8d25-42e9-9b8b-1f82da927fdf"
        }
      }, {
        "item": {
          "reference": "urn:uuid:ccccf980-9279-4c03-a67e-d76e2b5e3f6d"
        }
      }, {
        "item": {
          "reference": "urn:uuid:30dd27dd-f543-4ed1-af0c-45a0d86f8c44"
        }
      }, {
        "item": {
          "reference": "urn:uuid:f968b839-4a27-4cd2-b811-23a15080841f"
        }
      }, {
        "item": {
          "reference": "urn:uuid:d2742d3a-0d26-4a2f-bb1b-d715175f304b"
        }
      }, {
        "item": {
          "reference": "urn:uuid:c36ccf4d-c36d-418a-9377-87abe921da20"
        }
      }, {
        "item": {
          "reference": "urn:uuid:e8b0f0e3-3f72-47b9-9704-d505499f5bd4"
        }
      }, {
        "item": {
          "reference": "urn:uuid:b1f0da12-05a3-40c0-803d-e1ace3a1d662"
        }
      }, {
        "item": {
          "reference": "urn:uuid:39b96683-5685-4fe5-a7ee-0e04abab15d7"
        }
      }, {
        "item": {
          "reference": "urn:uuid:8d969ddb-3565-4835-9303-cf768170a93c"
        }
      }, {
        "item": {
          "reference": "urn:uuid:f7986f14-276c-456b-b307-e90d377efc63"
        }
      }, {
        "item": {
          "reference": "urn:uuid:d980857b-1253-4fdb-b845-2e2632694801"
        }
      }, {
        "item": {
          "reference": "urn:uuid:f76b243a-c6a6-441c-9423-38c2737fa509"
        }
      }, {
        "item": {
          "reference": "urn:uuid:bd4eac0d-2e1a-4905-bc02-7ccebec8788c"
        }
      }, {
        "item": {
          "reference": "urn:uuid:cf6f9187-8165-4e47-a0e8-4ad0aa72073a"
        }
      }, {
        "item": {
          "reference": "urn:uuid:cac67423-078e-4248-939e-57c5eeb63f2f"
        }
      }, {
        "item": {
          "reference": "urn:uuid:eddf4bf8-0500-4a88-b66c-935fe8518063"
        }
      } ]
    }
  } ]
}