{
  "resourceType": "Bundle",
  "identifier": {
    "type": {
      "text": "ClinicalDocument VersionNumber"
    },
    "value": "1"
  },
  "type": "message",
  "entry": [ {
    "fullUrl": "urn:uuid:2B77B3F5-3016-4A6D-821F-152CE420E58D",
    "resource": {
      "resourceType": "MessageHeader",
      "id": "2B77B3F5-3016-4A6D-821F-152CE420E58D",
      "event": {
        "system": "https://fhir.nhs.uk/STU3/CodeSystem/EventType-1",
        "code": "referral-1",
        "display": "Referral"
      },
      "destination": [ {
        "endpoint": "urn:nhs-uk:addressing:ods:EM396:DOSServiceID:26428"
      } ],
      "timestamp": "2025-10-30T09:45:22.000+00:00",
      "source": {
        "name": "NHS 111 Adaptor",
        "endpoint": "http://localhost:8080/report"
      },
      "reason": {
        "coding": [ {
          "system": "urn:nhs-itk:ns:201005:interaction",
          "code": "urn:nhs-itk:interaction:primaryNHS111RepeatCallerDocumentSet-v1-0"
        } ]
      }
    }
  }, {
    "fullUrl": "urn:uuid:744b2de4-fb18-4d95-970e-e0b66b3196bd",
    "resource": {
      "resourceType": "Encounter",
      "id": "744b2de4-fb18-4d95-970e-e0b66b3196bd",
      "identifier": [ {
        "system": "2.16.840.1.113883.2.1.3.2.4.18.34",
        "value": "D47E4F49-D4B8-4913-85B9-64AF5523B268"
      }, {
        "system": "2.16.840.1.113883.2.1.3.2.4.18.35",
        "value": "1193164"
      } ],
      "status": "finished",
      "type": [ {
        "text": "111 Encounter Referral"
      } ],
      "subject": {
        "reference": "urn:uuid:14345537-a6d3-4da9-97b8-d28eadb32ed2"
      },
      "participant": [ {
        "type": [ {
          "coding": [ {
            "system": "http://hl7.org/fhir/ValueSet/encounter-participant-type",
            "code": "PPRF",
            "display": "Author"
          } ]
        } ],
        "individual": {
          "reference": "urn:uuid:7ddddad5-be98-4e9d-ab70-8849294437f5"
        }
      }, {
        "type": [ {
          "coding": [ {
            "system": "http://hl7.org/fhir/ValueSet/encounter-participant-type",
            "code": "ATND",
            "display": "Responsible Party"
          } ]
        } ],
        "individual": {
          "reference": "urn:uuid:09c1d0ee-4504-47a3-9f50-2e8db8c49109"
        }
      } ],
      "period": {
        "start": "2025-10-30T09:45:22+00:00"
      },
      "location": [ {
        "location": {
          "reference": "urn:uuid:a396184d-8d5c-46fb-9ecf-b4d1ae30a27e"
        },
        "status": "active"
      }, {
        "location": {
          "reference": "urn:uuid:6ca0f2fb-205c-4e6f-851b-9a68e6603cce"
        },
        "status": "completed"
      } ],
      "serviceProvider": {
        "reference": "urn:uuid:90e89234-8d79-493d-b1d7-4410730789f7"
      }
    }
  }, {
    "fullUrl": "urn:uuid:90e89234-8d79-493d-b1d7-4410730789f7",
    "resource": {
      "resourceType": "Organization",
      "id": "90e89234-8d79-493d-b1d7-4410730789f7",
      "active": true,
      "type": [ {
        "text": "CST"
      } ],
      "name": "West Midlands Single Instance"
    }
  }, {
    "fullUrl": "urn:uuid:7ddddad5-be98-4e9d-ab70-8849294437f5",
    "resource": {
      "resourceType": "Practitioner",
      "id": "7ddddad5-be98-4e9d-ab70-8849294437f5",
      "active": true,
      "name": [ {
        "use": "official"
      } ]
    }
  }, {
    "fullUrl": "urn:uuid:09c1d0ee-4504-47a3-9f50-2e8db8c49109",
    "resource": {
      "resourceType": "Practitioner",
      "id": "09c1d0ee-4504-47a3-9f50-2e8db8c49109",
      "active": true,
      "name": [ {
        "use": "official",
        "family": "Walker",
        "given": [ "Alison" ]
      } ]
    }
  }, {
    "fullUrl": "urn:uuid:a396184d-8d5c-46fb-9ecf-b4d1ae30a27e",
    "resource": {
      "resourceType": "Location",
      "id": "a396184d-8d5c-46fb-9ecf-b4d1ae30a27e",
      "managingOrganization": {
        "reference": "urn:uuid:987357e6-7247-4103-ac65-ede400fb8039"
      }
    }
  }, {
    "fullUrl": "urn:uuid:987357e6-7247-4103-ac65-ede400fb8039",
    "resource": {
      "resourceType": "Organization",
      "id": "987357e6-7247-4103-ac65-ede400fb8039",
      "identifier": [ {
        "value": "F81718"
      } ],
      "type": [ {
        "text": "GP Practice"
      } ],
      "name": "LYDIA HOUSE PRACTICE"
    }
  }, {
    "fullUrl": "urn:uuid:6ca0f2fb-205c-4e6f-851b-9a68e6603cce",
    "resource": {
      "resourceType": "Location",
      "id": "6ca0f2fb-205c-4e6f-851b-9a68e6603cce",
      "name": "Incident Location",
      "address": {
        "type": "physical",
        "line": [ "Whitchurch Hospital", "Claypit Street", "Whitchurch", "Shropshire" ],
        "postalCode": "SY13 1NT"
      }
    }
  }, {
    "fullUrl": "urn:uuid:14345537-a6d3-4da9-97b8-d28eadb32ed2",
    "resource": {
      "resourceType": "Patient",
      "id": "14345537-a6d3-4da9-97b8-d28eadb32ed2",
      "identifier": [ {
        "extension": [ {
          "url": "https://fhir.hl7.org.uk/STU3/StructureDefinition/Extension-CareConnect-NHSNumberVerificationStatus-1",
          "valueCodeableConcept": {
            "coding": [ {
              "system": "https://fhir.hl7.org.uk/STU3/StructureDefinition/Extension-CareConnect-NHSNumberVerificationStatus-1",
              "code": "01"
            } ]
          }
        } ],
        "system": "https://fhir.nhs.uk/Id/nhs-number",
        "value": "9990238359"
      } ],
      "active": true,
      "name": [ {
        "use": "official",
        "family": "Xxtestpatientdzadn",
        "given": [ "Scrdonotuse" ]
      } ],
      "telecom": [ {
        "system": "phone",
        "value": "tel:01204428013",
        "use": "home"
      }, {
        "system": "phone",
        "value": "tel:01204428013"
      } ],
      "gender": "female",
      "birthDate": "1965-02-17",
      "address": [ {
        "use": "home",
        "line": [ "Test Address", "Captain Lees Road", "Westhoughton", "Bolton", "Greater Manchester" ],
        "postalCode": "BL5 3UB"
      }, {
        "type": "physical",
        "line": [ "Whitchurch Hospital", "Claypit Street", "Whitchurch", "Shropshire" ],
        "postalCode": "SY13 1NT"
      } ],
      "generalPractitioner": [ {
        "reference": "urn:uuid:64b9221c-79a6-4ffb-b3c7-c8c7260ed438"
      } ]
    }
  }, {
    "fullUrl": "urn:uuid:64b9221c-79a6-4ffb-b3c7-c8c7260ed438",
    "resource": {
      "resourceType": "Organization",
      "id": "64b9221c-79a6-4ffb-b3c7-c8c7260ed438",
      "identifier": [ {
        "value": "F81718"
      } ],
      "type": [ {
        "text": "GP Practice"
      } ],
      "name": "LYDIA HOUSE PRACTICE"
    }
  }, {
    "fullUrl": "urn:uuid:186086dc-5c2d-4aeb-8f3b-f25d625aa8b6",
    "resource": {
      "resourceType": "HealthcareService",
      "id": "186086dc-5c2d-4aeb-8f3b-f25d625aa8b6",
      "active": true,
      "providedBy": {
        "reference": "urn:uuid:942c5f0b-d02d-4aee-9144-85bc4f246205"
      },
      "location": [ {
        "reference": "urn:uuid:1326ad89-7b40-458c-8a49-5e29f7c07115"
      } ],
      "name": "Repeat Caller - Live (v2)"
    }
  }, {
    "fullUrl": "urn:uuid:1326ad89-7b40-458c-8a49-5e29f7c07115",
    "resource": {
      "resourceType": "Location",
      "id": "1326ad89-7b40-458c-8a49-5e29f7c07115",
      "managingOrganization": {
        "reference": "urn:uuid:942c5f0b-d02d-4aee-9144-85bc4f246205"
      }
    }
  }, {
    "fullUrl": "urn:uuid:942c5f0b-d02d-4aee-9144-85bc4f246205",
    "resource": {
      "resourceType": "Organization",
      "id": "942c5f0b-d02d-4aee-9144-85bc4f246205",
      "identifier": [ {
        "value": "RHY25"
      } ],
      "type": [ {
        "coding": [ {
          "code": "PRCP",
          "display": "Repeat Caller - Live (v2)"
        } ]
      } ],
      "name": "Repeat Caller - Live (v2)"
    }
  }, {
    "fullUrl": "urn:uuid:79af17cc-605e-4bba-bc12-d6bd99094d48",
    "resource": {
      "resourceType": "ReferralRequest",
      "id": "79af17cc-605e-4bba-bc12-d6bd99094d48",
      "status": "active",
      "intent": "plan",
      "priority": "routine",
      "subject": {
        "reference": "urn:uuid:14345537-a6d3-4da9-97b8-d28eadb32ed2"
      },
      "context": {
        "reference": "urn:uuid:744b2de4-fb18-4d95-970e-e0b66b3196bd"
      },
      "occurrencePeriod": {
        "start": "2021-10-01T07:33:59+00:00",
        "end": "2021-10-01T08:33:59+00:00"
      },
      "authoredOn": "2020-10-30T09:44:13+00:00",
      "requester": {
        "agent": {
          "reference": "urn:uuid:6ffd75ef-edf7-4109-aca2-cd1afe651d17"
        },
        "onBehalfOf": {
          "reference": "urn:uuid:90e89234-8d79-493d-b1d7-4410730789f7"
        }
      },
      "recipient": [ {
        "reference": "urn:uuid:186086dc-5c2d-4aeb-8f3b-f25d625aa8b6"
      } ],
      "reasonReference": [ {
        "reference": "urn:uuid:e66d903a-d1ff-48c7-9ede-43103ade75b7"
      } ],
      "supportingInfo": [ {
        "reference": "urn:uuid:6b48c15a-b2a8-40eb-bb75-64d6788d5a84"
      } ]
    }
  }, {
    "fullUrl": "urn:uuid:6b48c15a-b2a8-40eb-bb75-64d6788d5a84",
    "resource": {
      "resourceType": "ProcedureRequest",
      "id": "6b48c15a-b2a8-40eb-bb75-64d6788d5a84",
      "status": "active",
      "intent": "plan",
      "priority": "routine",
      "doNotPerform": false,
      "code": {
        "coding": [ {
          "system": "2.16.840.1.113883.2.1.3.2.4.17.325",
          "code": "Dx05",
          "display": "To contact a local service within 2 hours"
        } ]
      },
      "subject": {
        "reference": "urn:uuid:14345537-a6d3-4da9-97b8-d28eadb32ed2"
      },
      "occurrencePeriod": {
        "start": "2021-10-01T07:33:59+00:00",
        "end": "2021-10-01T08:33:59+00:00"
      },
      "reasonReference": [ {
        "reference": "urn:uuid:e66d903a-d1ff-48c7-9ede-43103ade75b7"
      } ]
    }
  }, {
    "fullUrl": "urn:uuid:498a1ecf-8a99-4d30-b087-c4c2667b4377",
    "resource": {
      "resourceType": "Composition",
      "id": "498a1ecf-8a99-4d30-b087-c4c2667b4377",
      "identifier": {
        "use": "usual",
        "value": "499BEC45-8F01-498C-A61F-B8AC124ED50E"
      },
      "status": "final",
      "type": {
        "coding": [ {
          "system": "http://snomed.info/sct",
          "code": "371531000",
          "display": "Report of clinical encounter (record artifact)"
        } ]
      },
      "subject": {
        "reference": "urn:uuid:14345537-a6d3-4da9-97b8-d28eadb32ed2"
      },
      "encounter": {
        "reference": "urn:uuid:744b2de4-fb18-4d95-970e-e0b66b3196bd"
      },
      "date": "2021-10-01T07:33:59+00:00",
      "author": [ {
        "reference": "urn:uuid:7ddddad5-be98-4e9d-ab70-8849294437f5"
      } ],
      "title": "111 Report",
      "confidentiality": "N",
      "section": [ {
        "section": [ {
          "title": "Patient's Reported Condition",
          "text": {
            "status": "generated",
            "div": "<div xmlns=\"http://www.w3.org/1999/xhtml\">&lt;br/&gt;WHITCHURCH MIU TEST</div>"
          }
        }, {
          "title": "Pathways Disposition",
          "text": {
            "status": "generated",
            "div": "<div xmlns=\"http://www.w3.org/1999/xhtml\">&lt;br/&gt;\n                                                    &lt;br/&gt;\n                                                    &lt;br/&gt;To contact a local service within 2 hours (Dx05)\n\n                                                    Selected service: DO NOT BOOK APPOINTMENT - TESTING Whitchurch Minor Injury Unit</div>"
          }
        }, {
          "title": "Consultation Summary",
          "text": {
            "status": "generated",
            "div": "<div xmlns=\"http://www.w3.org/1999/xhtml\">&lt;br/&gt;\n                                                    &lt;br/&gt;\n                                                    &lt;br/&gt;\n                                                    &lt;br/&gt;\n                                                    &lt;br/&gt;InjuryBite or stingInsect or spider biteSting/bite more than 6 hours agoVery severe, deep limb pain</div>"
          }
        }, {
          "title": "Pathways Assessment",
          "text": {
            "status": "generated",
            "div": "<div xmlns=\"http://www.w3.org/1999/xhtml\">&lt;br/&gt;\n                                                    &lt;br/&gt;\n                                                    &lt;br/&gt;\n                                                    &lt;br/&gt;\n                                                    &lt;br/&gt;\n                                                    &lt;br/&gt;\n                                                    &lt;br/&gt;\n                                                    &lt;br/&gt;\n                                                    &lt;br/&gt;\n                                                    &lt;br/&gt;\n                                                    &lt;br/&gt;\n                                                    &lt;br/&gt;\n                                                    &lt;br/&gt;\n                                                    &lt;br/&gt;\n                                                    &lt;br/&gt;\n                                                    &lt;br/&gt;\n                                                    &lt;br/&gt;\n                                                    &lt;br/&gt;An injury or health problem was the reason for the contact.Heavy bleeding had not occurred in the previous 2 hours.An injury or symptom relating to an injury was the main problem.User Comments: TESTThere was a minor injury (a bite or sting).User Comments: TESTPathway selected - Bites and StingsThe bite or sting was caused by an insect or spider.User Comments: TESTThe sting/bite had not occurred within the previous 6 hours.The individual had been stung less than 10 timesThe individual was not experiencing nausea and/or vomiting.The sting did not involve the eyes, mouth or limb.There was no insect/insect part remaining attached to the skinThere was very severe, deep pain.Instructions given were: The individual needs to contact a local service within 2 hours.Directory of Services referral: DO NOT BOOK APPOINTMENT - TESTING Whitchurch Minor Injury UnitAdvice given:\n                                                    Worsening</div>"
          }
        }, {
          "title": "Advice Given",
          "text": {
            "status": "generated",
            "div": "<div xmlns=\"http://www.w3.org/1999/xhtml\">&lt;br/&gt;\n                                                    &lt;br/&gt;If there are any new symptoms, or if the condition gets worse, changes or you have any other concerns, call us back.</div>"
          }
        }, {
          "title": "Special Patient Notes",
          "text": {
            "status": "generated",
            "div": "<div xmlns=\"http://www.w3.org/1999/xhtml\">&lt;content styleCode=&quot;bold&quot;&gt;Note:&lt;/content&gt;\n                                                    &lt;br/&gt;\n                                                    &lt;content&gt;TEST NOTE West Midlands Single Instance&lt;/content&gt;\n                                                    &lt;br/&gt;\n                                                    &lt;br/&gt;Special Notes from an external system were flagged as being present for this patient.</div>"
          }
        } ]
      }, {
        "title": "ReferralRequest",
        "entry": [ {
          "reference": "urn:uuid:79af17cc-605e-4bba-bc12-d6bd99094d48"
        } ]
      }, {
        "title": "QuestionnaireResponse",
        "entry": [ {
          "reference": "urn:uuid:1b0935c2-5216-4ce3-a1fd-733814ff5a74"
        } ]
      }, {
        "title": "QuestionnaireResponse",
        "entry": [ {
          "reference": "urn:uuid:bc02766f-cea2-4b6d-b9b0-04fbe3a2d7a3"
        } ]
      }, {
        "title": "QuestionnaireResponse",
        "entry": [ {
          "reference": "urn:uuid:a2e0a761-031b-4cf6-9245-5c0a35bf12e8"
        } ]
      }, {
        "title": "QuestionnaireResponse",
        "entry": [ {
          "reference": "urn:uuid:83eee3df-aacb-43d4-acb9-d879d45dd518"
        } ]
      }, {
        "title": "QuestionnaireResponse",
        "entry": [ {
          "reference": "urn:uuid:60228c84-6e8a-4d90-a929-7d79445d3b0c"
        } ]
      }, {
        "title": "QuestionnaireResponse",
        "entry": [ {
          "reference": "urn:uuid:74351440-6839-47f5-b91f-a5b4e756fc5b"
        } ]
      }, {
        "title": "QuestionnaireResponse",
        "entry": [ {
          "reference": "urn:uuid:c37beff8-361e-4cbf-80c0-07f1542f1949"
        } ]
      }, {
        "title": "QuestionnaireResponse",
        "entry": [ {
          "reference": "urn:uuid:c06177b1-8165-48a2-9c23-aa4cf3cb560b"
        } ]
      }, {
        "title": "QuestionnaireResponse",
        "entry": [ {
          "reference": "urn:uuid:f7ce468e-9c98-475c-8c9f-84c32c4239cc"
        } ]
      }, {
        "title": "QuestionnaireResponse",
        "entry": [ {
          "reference": "urn:uuid:199f8f40-8bd7-47e2-ad6e-c70d1f117ac7"
        } ]
      }, {
        "title": "QuestionnaireResponse",
        "entry": [ {
          "reference": "urn:uuid:0c7f363b-d34b-4c2e-970d-7c57a04a123a"
        } ]
      }, {
        "title": "QuestionnaireResponse",
        "entry": [ {
          "reference": "urn:uuid:ebe77262-e113-4ff9-9eda-9dfb2317dcd2"
        } ]
      }, {
        "title": "QuestionnaireResponse",
        "entry": [ {
          "reference": "urn:uuid:ac6c20e6-1adc-4fda-8384-e299894090b5"
        } ]
      }, {
        "title": "QuestionnaireResponse",
        "entry": [ {
          "reference": "urn:uuid:b4142f9a-2751-4ab2-bcf7-42a595301ac5"
        } ]
      }, {
        "title": "QuestionnaireResponse",
        "entry": [ {
          "reference": "urn:uuid:eff90690-3576-4917-99c0-a59fc4dec370"
        } ]
      }, {
        "title": "QuestionnaireResponse",
        "entry": [ {
          "reference": "urn:uuid:10fb5c9a-8191-44fb-a7e0-4b1911b83416"
        } ]
      }, {
        "title": "QuestionnaireResponse",
        "entry": [ {
          "reference": "urn:uuid:6c2d7d6e-96db-4256-959d-5e982faac234"
        } ]
      }, {
        "title": "QuestionnaireResponse",
        "entry": [ {
          "reference": "urn:uuid:88777710-ec62-4627-82c4-30405d0a3ab5"
        } ]
      }, {
        "title": "QuestionnaireResponse",
        "entry": [ {
          "reference": "urn:uuid:b09f9847-66b7-426a-bfbd-ffcd58583e63"
        } ]
      }, {
        "title": "QuestionnaireResponse",
        "entry": [ {
          "reference": "urn:uuid:a2e8d498-a3b9-4f4c-857f-bc2bbe01007c"
        } ]
      }, {
        "title": "QuestionnaireResponse",
        "entry": [ {
          "reference": "urn:uuid:0f6bf3bd-edab-4470-983f-32ae103c24bb"
        } ]
      }, {
        "title": "QuestionnaireResponse",
        "entry": [ {
          "reference": "urn:uuid:1b99b353-a7b4-4e6a-a796-411c5ae2f38b"
        } ]
      } ]
    }
  }, {
    "fullUrl": "urn:uuid:94739b6c-71a6-4904-8c71-f3d1af8d0073",
    "resource": {
      "resourceType": "Consent",
      "id": "94739b6c-71a6-4904-8c71-f3d1af8d0073",
      "identifier": {
        "use": "usual",
        "value": "499BEC45-8F01-498C-A61F-B8AC124ED50E"
      },
      "status": "active",
      "patient": {
        "reference": "urn:uuid:14345537-a6d3-4da9-97b8-d28eadb32ed2"
      },
      "period": {
        "start": "2025-10-30T09:45:22+00:00"
      },
      "consentingParty": [ {
        "reference": "urn:uuid:14345537-a6d3-4da9-97b8-d28eadb32ed2"
      } ],
      "action": [ {
        "coding": [ {
          "system": "http://snomed.info/sct",
          "code": "425691002",
          "display": "Consent given for electronic record sharing"
        } ],
        "text": "Consent given for electronic record sharing"
      } ],
      "organization": [ {
        "reference": "urn:uuid:90e89234-8d79-493d-b1d7-4410730789f7"
      } ],
      "policyRule": "http://hl7.org/fhir/ConsentPolicy/opt-out",
      "data": [ {
        "meaning": "related",
        "reference": {
          "reference": "urn:uuid:744b2de4-fb18-4d95-970e-e0b66b3196bd"
        }
      } ]
    }
  }, {
    "fullUrl": "urn:uuid:e66d903a-d1ff-48c7-9ede-43103ade75b7",
    "resource": {
      "resourceType": "Condition",
      "id": "e66d903a-d1ff-48c7-9ede-43103ade75b7",
      "clinicalStatus": "active",
      "verificationStatus": "unknown",
      "subject": {
        "reference": "urn:uuid:14345537-a6d3-4da9-97b8-d28eadb32ed2"
      },
      "context": {
        "reference": "urn:uuid:744b2de4-fb18-4d95-970e-e0b66b3196bd"
      },
      "evidence": [ {
        "detail": [ {
          "reference": "urn:uuid:1b0935c2-5216-4ce3-a1fd-733814ff5a74"
        } ]
      }, {
        "detail": [ {
          "reference": "urn:uuid:bc02766f-cea2-4b6d-b9b0-04fbe3a2d7a3"
        } ]
      }, {
        "detail": [ {
          "reference": "urn:uuid:a2e0a761-031b-4cf6-9245-5c0a35bf12e8"
        } ]
      }, {
        "detail": [ {
          "reference": "urn:uuid:83eee3df-aacb-43d4-acb9-d879d45dd518"
        } ]
      }, {
        "detail": [ {
          "reference": "urn:uuid:60228c84-6e8a-4d90-a929-7d79445d3b0c"
        } ]
      }, {
        "detail": [ {
          "reference": "urn:uuid:74351440-6839-47f5-b91f-a5b4e756fc5b"
        } ]
      }, {
        "detail": [ {
          "reference": "urn:uuid:c37beff8-361e-4cbf-80c0-07f1542f1949"
        } ]
      }, {
        "detail": [ {
          "reference": "urn:uuid:c06177b1-8165-48a2-9c23-aa4cf3cb560b"
        } ]
      }, {
        "detail": [ {
          "reference": "urn:uuid:f7ce468e-9c98-475c-8c9f-84c32c4239cc"
        } ]
      }, {
        "detail": [ {
          "reference": "urn:uuid:199f8f40-8bd7-47e2-ad6e-c70d1f117ac7"
        } ]
      }, {
        "detail": [ {
          "reference": "urn:uuid:0c7f363b-d34b-4c2e-970d-7c57a04a123a"
        } ]
      }, {
        "detail": [ {
          "reference": "urn:uuid:ebe77262-e113-4ff9-9eda-9dfb2317dcd2"
        } ]
      }, {
        "detail": [ {
          "reference": "urn:uuid:ac6c20e6-1adc-4fda-8384-e299894090b5"
        } ]
      }, {
        "detail": [ {
          "reference": "urn:uuid:b4142f9a-2751-4ab2-bcf7-42a595301ac5"
        } ]
      }, {
        "detail": [ {
          "reference": "urn:uuid:eff90690-3576-4917-99c0-a59fc4dec370"
        } ]
      }, {
        "detail": [ {
          "reference": "urn:uuid:10fb5c9a-8191-44fb-a7e0-4b1911b83416"
        } ]
      }, {
        "detail": [ {
          "reference": "urn:uuid:6c2d7d6e-96db-4256-959d-5e982faac234"
        } ]
      }, {
        "detail": [ {
          "reference": "urn:uuid:88777710-ec62-4627-82c4-30405d0a3ab5"
        } ]
      }, {
        "detail": [ {
          "reference": "urn:uuid:b09f9847-66b7-426a-bfbd-ffcd58583e63"
        } ]
      }, {
        "detail": [ {
          "reference": "urn:uuid:a2e8d498-a3b9-4f4c-857f-bc2bbe01007c"
        } ]
      }, {
        "detail": [ {
          "reference": "urn:uuid:0f6bf3bd-edab-4470-983f-32ae103c24bb"
        } ]
      }, {
        "detail": [ {
          "reference": "urn:uuid:1b99b353-a7b4-4e6a-a796-411c5ae2f38b"
        } ]
      } ]
    }
  }, {
    "fullUrl": "urn:uuid:1b0935c2-5216-4ce3-a1fd-733814ff5a74",
    "resource": {
      "resourceType": "QuestionnaireResponse",
      "id": "1b0935c2-5216-4ce3-a1fd-733814ff5a74",
      "identifier": {
        "value": "1193164"
      },
      "questionnaire": {
        "reference": "urn:uuid:c306a067-3fd1-4d46-a912-f170a44447d5"
      },
      "status": "completed",
      "subject": {
        "reference": "urn:uuid:14345537-a6d3-4da9-97b8-d28eadb32ed2"
      },
      "context": {
        "reference": "urn:uuid:744b2de4-fb18-4d95-970e-e0b66b3196bd"
      },
      "authored": "2020-10-30T09:45:23+00:00",
      "item": [ {
        "linkId": "Tx220074",
        "text": "What is the reason for the contact?",
        "answer": [ {
          "valueString": "an injury or other health problem"
        } ]
      } ]
    }
  }, {
    "fullUrl": "urn:uuid:c306a067-3fd1-4d46-a912-f170a44447d5",
    "resource": {
      "resourceType": "Questionnaire",
      "id": "c306a067-3fd1-4d46-a912-f170a44447d5",
      "identifier": [ {
        "value": "1193164"
      } ],
      "version": "2020-10-30T09:45:23.026Z",
      "status": "active",
      "experimental": false,
      "date": "2020-10-30T09:45:23+00:00",
      "publisher": "User ID: 'HOLDENR' User name: 'Rachael Holden' User skill set: 'T3'",
      "lastReviewDate": "2020-10-30",
      "subjectType": [ "Patient" ],
      "item": [ {
        "linkId": "1193164",
        "prefix": "5",
        "text": "What is the reason for the contact?",
        "type": "choice",
        "required": true,
        "repeats": false,
        "option": [ {
          "valueString": "an injury or other health problem, Selected: true"
        }, {
          "valueString": "labour or childbirth, Selected: false"
        }, {
          "valueString": "a need to access another healthcare service, Selected: false"
        }, {
          "valueString": "a healthcare professional requesting contact with another clinician, Selected: false"
        }, {
          "valueString": "a report of results or tests, Selected: false"
        }, {
          "valueString": "a possible failure of contraception, Selected: false"
        }, {
          "valueString": "more, Selected: false"
        } ]
      } ]
    }
  }, {
    "fullUrl": "urn:uuid:bc02766f-cea2-4b6d-b9b0-04fbe3a2d7a3",
    "resource": {
      "resourceType": "QuestionnaireResponse",
      "id": "bc02766f-cea2-4b6d-b9b0-04fbe3a2d7a3",
      "identifier": {
        "value": "1193164"
      },
      "questionnaire": {
        "reference": "urn:uuid:fcda9127-3560-40fe-942e-7188bc52c2cb"
      },
      "status": "completed",
      "subject": {
        "reference": "urn:uuid:14345537-a6d3-4da9-97b8-d28eadb32ed2"
      },
      "context": {
        "reference": "urn:uuid:744b2de4-fb18-4d95-970e-e0b66b3196bd"
      },
      "authored": "2020-10-30T09:45:23+00:00",
      "item": [ {
        "linkId": "Tx221807",
        "text": "STRING:to'Immediatethreatstolife(SPA/OOHversion)'-'Majorbloodloss'stem",
        "answer": [ {
          "valueString": "\"present\""
        } ]
      } ]
    }
  }, {
    "fullUrl": "urn:uuid:fcda9127-3560-40fe-942e-7188bc52c2cb",
    "resource": {
      "resourceType": "Questionnaire",
      "id": "fcda9127-3560-40fe-942e-7188bc52c2cb",
      "identifier": [ {
        "value": "1193164"
      } ],
      "version": "2020-10-30T09:45:23.026Z",
      "status": "active",
      "experimental": false,
      "date": "2020-10-30T09:45:23+00:00",
      "publisher": "User ID: 'HOLDENR' User name: 'Rachael Holden' User skill set: 'T3'",
      "lastReviewDate": "2020-10-30",
      "subjectType": [ "Patient" ],
      "item": [ {
        "linkId": "1193164",
        "prefix": "200",
        "text": "STRING:to'Immediatethreatstolife(SPA/OOHversion)'-'Majorbloodloss'stem",
        "type": "choice",
        "required": true,
        "repeats": false,
        "option": [ {
          "valueString": "\"present\", Selected: true"
        } ]
      } ]
    }
  }, {
    "fullUrl": "urn:uuid:a2e0a761-031b-4cf6-9245-5c0a35bf12e8",
    "resource": {
      "resourceType": "QuestionnaireResponse",
      "id": "a2e0a761-031b-4cf6-9245-5c0a35bf12e8",
      "identifier": {
        "value": "1193164"
      },
      "questionnaire": {
        "reference": "urn:uuid:2d9b5233-25b7-44af-9744-538909c3e50a"
      },
      "status": "completed",
      "subject": {
        "reference": "urn:uuid:14345537-a6d3-4da9-97b8-d28eadb32ed2"
      },
      "context": {
        "reference": "urn:uuid:744b2de4-fb18-4d95-970e-e0b66b3196bd"
      },
      "authored": "2020-10-30T09:45:23+00:00"
    }
  }, {
    "fullUrl": "urn:uuid:2d9b5233-25b7-44af-9744-538909c3e50a",
    "resource": {
      "resourceType": "Questionnaire",
      "id": "2d9b5233-25b7-44af-9744-538909c3e50a",
      "identifier": [ {
        "value": "1193164"
      } ],
      "version": "2020-10-30T09:45:23.026Z",
      "status": "active",
      "experimental": false,
      "date": "2020-10-30T09:45:23+00:00",
      "publisher": "User ID: 'HOLDENR' User name: 'Rachael Holden' User skill set: 'T3'",
      "lastReviewDate": "2020-10-30",
      "subjectType": [ "Patient" ]
    }
  }, {
    "fullUrl": "urn:uuid:83eee3df-aacb-43d4-acb9-d879d45dd518",
    "resource": {
      "resourceType": "QuestionnaireResponse",
      "id": "83eee3df-aacb-43d4-acb9-d879d45dd518",
      "identifier": {
        "value": "1193164"
      },
      "questionnaire": {
        "reference": "urn:uuid:760ffa96-63d9-4ea0-9ded-fad17294b73a"
      },
      "status": "completed",
      "subject": {
        "reference": "urn:uuid:14345537-a6d3-4da9-97b8-d28eadb32ed2"
      },
      "context": {
        "reference": "urn:uuid:744b2de4-fb18-4d95-970e-e0b66b3196bd"
      },
      "authored": "2020-10-30T09:45:23+00:00",
      "item": [ {
        "linkId": "Tx221799",
        "text": "STRING:injury,illnessorlabourestablishedinEntryFlow",
        "answer": [ {
          "valueString": "\"present\""
        } ]
      } ]
    }
  }, {
    "fullUrl": "urn:uuid:760ffa96-63d9-4ea0-9ded-fad17294b73a",
    "resource": {
      "resourceType": "Questionnaire",
      "id": "760ffa96-63d9-4ea0-9ded-fad17294b73a",
      "identifier": [ {
        "value": "1193164"
      } ],
      "version": "2020-10-30T09:45:23.026Z",
      "status": "active",
      "experimental": false,
      "date": "2020-10-30T09:45:23+00:00",
      "publisher": "User ID: 'HOLDENR' User name: 'Rachael Holden' User skill set: 'T3'",
      "lastReviewDate": "2020-10-30",
      "subjectType": [ "Patient" ],
      "item": [ {
        "linkId": "1193164",
        "prefix": "0",
        "text": "STRING:injury,illnessorlabourestablishedinEntryFlow",
        "type": "choice",
        "required": true,
        "repeats": false,
        "option": [ {
          "valueString": "\"present\", Selected: true"
        } ]
      } ]
    }
  }, {
    "fullUrl": "urn:uuid:60228c84-6e8a-4d90-a929-7d79445d3b0c",
    "resource": {
      "resourceType": "QuestionnaireResponse",
      "id": "60228c84-6e8a-4d90-a929-7d79445d3b0c",
      "identifier": {
        "value": "1193164"
      },
      "questionnaire": {
        "reference": "urn:uuid:ad07ed78-7ed0-4cc2-ba01-307fcabddef4"
      },
      "status": "completed",
      "subject": {
        "reference": "urn:uuid:14345537-a6d3-4da9-97b8-d28eadb32ed2"
      },
      "context": {
        "reference": "urn:uuid:744b2de4-fb18-4d95-970e-e0b66b3196bd"
      },
      "authored": "2020-10-30T09:45:23+00:00",
      "item": [ {
        "linkId": "Tx224120",
        "text": "Have you been bleeding RED BLOOD very heavily IN THE LAST 2 HOURS?",
        "answer": [ {
          "valueString": "no"
        } ]
      } ]
    }
  }, {
    "fullUrl": "urn:uuid:ad07ed78-7ed0-4cc2-ba01-307fcabddef4",
    "resource": {
      "resourceType": "Questionnaire",
      "id": "ad07ed78-7ed0-4cc2-ba01-307fcabddef4",
      "identifier": [ {
        "value": "1193164"
      } ],
      "version": "2020-10-30T09:45:23.026Z",
      "status": "active",
      "experimental": false,
      "date": "2020-10-30T09:45:23+00:00",
      "publisher": "User ID: 'HOLDENR' User name: 'Rachael Holden' User skill set: 'T3'",
      "lastReviewDate": "2020-10-30",
      "subjectType": [ "Patient" ],
      "item": [ {
        "linkId": "1193164",
        "prefix": "10100",
        "text": "Have you been bleeding RED BLOOD very heavily IN THE LAST 2 HOURS?",
        "type": "choice",
        "required": true,
        "repeats": false,
        "option": [ {
          "valueString": "yes, Selected: false"
        }, {
          "valueString": "not sure, Selected: false"
        }, {
          "valueString": "no, Selected: true"
        } ]
      } ]
    }
  }, {
    "fullUrl": "urn:uuid:74351440-6839-47f5-b91f-a5b4e756fc5b",
    "resource": {
      "resourceType": "QuestionnaireResponse",
      "id": "74351440-6839-47f5-b91f-a5b4e756fc5b",
      "identifier": {
        "value": "1193164"
      },
      "questionnaire": {
        "reference": "urn:uuid:1f70441b-9abf-475d-b857-c9e4578f8890"
      },
      "status": "completed",
      "subject": {
        "reference": "urn:uuid:14345537-a6d3-4da9-97b8-d28eadb32ed2"
      },
      "context": {
        "reference": "urn:uuid:744b2de4-fb18-4d95-970e-e0b66b3196bd"
      },
      "authored": "2020-10-30T09:45:23+00:00",
      "item": [ {
        "linkId": "Tx221343",
        "text": "SocialConcernsExcluded",
        "answer": [ {
          "valueString": "==\"present\""
        } ]
      } ]
    }
  }, {
    "fullUrl": "urn:uuid:1f70441b-9abf-475d-b857-c9e4578f8890",
    "resource": {
      "resourceType": "Questionnaire",
      "id": "1f70441b-9abf-475d-b857-c9e4578f8890",
      "identifier": [ {
        "value": "1193164"
      } ],
      "version": "2020-10-30T09:45:23.026Z",
      "status": "active",
      "experimental": false,
      "date": "2020-10-30T09:45:23+00:00",
      "publisher": "User ID: 'HOLDENR' User name: 'Rachael Holden' User skill set: 'T3'",
      "lastReviewDate": "2020-10-30",
      "subjectType": [ "Patient" ],
      "item": [ {
        "linkId": "1193164",
        "prefix": "1100",
        "text": "SocialConcernsExcluded",
        "type": "choice",
        "required": true,
        "repeats": false,
        "option": [ {
          "valueString": "==\"present\", Selected: true"
        }, {
          "valueString": "*, Selected: false"
        } ]
      } ]
    }
  }, {
    "fullUrl": "urn:uuid:c37beff8-361e-4cbf-80c0-07f1542f1949",
    "resource": {
      "resourceType": "QuestionnaireResponse",
      "id": "c37beff8-361e-4cbf-80c0-07f1542f1949",
      "identifier": {
        "value": "1193164"
      },
      "questionnaire": {
        "reference": "urn:uuid:fc69fbce-b6cb-453c-83b6-4d959573df82"
      },
      "status": "completed",
      "subject": {
        "reference": "urn:uuid:14345537-a6d3-4da9-97b8-d28eadb32ed2"
      },
      "context": {
        "reference": "urn:uuid:744b2de4-fb18-4d95-970e-e0b66b3196bd"
      },
      "authored": "2020-10-30T09:45:23+00:00",
      "item": [ {
        "linkId": "Tx130011",
        "text": "What is the main problem?",
        "answer": [ {
          "valueString": "injury (specify)"
        } ]
      } ]
    }
  }, {
    "fullUrl": "urn:uuid:fc69fbce-b6cb-453c-83b6-4d959573df82",
    "resource": {
      "resourceType": "Questionnaire",
      "id": "fc69fbce-b6cb-453c-83b6-4d959573df82",
      "identifier": [ {
        "value": "1193164"
      } ],
      "version": "2020-10-30T09:45:23.026Z",
      "status": "active",
      "experimental": false,
      "date": "2020-10-30T09:45:23+00:00",
      "publisher": "User ID: 'HOLDENR' User name: 'Rachael Holden' User skill set: 'T3'",
      "lastReviewDate": "2020-10-30",
      "subjectType": [ "Patient" ],
      "item": [ {
        "linkId": "1193164",
        "prefix": "2300",
        "text": "What is the main problem?",
        "type": "choice",
        "required": true,
        "repeats": false,
        "option": [ {
          "valueString": "the individual has been told to follow a particular course of action (specify), Selected: false"
        }, {
          "valueString": "the individual is an identified frequent caller, Selected: false"
        }, {
          "valueString": "injury (specify), Selected: true"
        }, {
          "valueString": "illness or other health problem (specify), Selected: false"
        }, {
          "valueString": "child protection/vulnerable adult concern, Selected: false"
        }, {
          "valueString": "social or domestic emergency, Selected: false"
        }, {
          "valueString": "the environment potentially poses an immediate threat to life (specify), Selected: false"
        } ]
      } ]
    }
  }, {
    "fullUrl": "urn:uuid:c06177b1-8165-48a2-9c23-aa4cf3cb560b",
    "resource": {
      "resourceType": "QuestionnaireResponse",
      "id": "c06177b1-8165-48a2-9c23-aa4cf3cb560b",
      "identifier": {
        "value": "1193164"
      },
      "questionnaire": {
        "reference": "urn:uuid:9c24b812-d155-4a3b-86ee-315a77b6b192"
      },
      "status": "completed",
      "subject": {
        "reference": "urn:uuid:14345537-a6d3-4da9-97b8-d28eadb32ed2"
      },
      "context": {
        "reference": "urn:uuid:744b2de4-fb18-4d95-970e-e0b66b3196bd"
      },
      "authored": "2020-10-30T09:45:23+00:00",
      "item": [ {
        "linkId": "Tx224119",
        "text": "FROM WHAT YOU HAVE HEARD IS THIS A MINOR INJURY?",
        "answer": [ {
          "valueString": "yes - a minor bite or sting (specify)"
        } ]
      } ]
    }
  }, {
    "fullUrl": "urn:uuid:9c24b812-d155-4a3b-86ee-315a77b6b192",
    "resource": {
      "resourceType": "Questionnaire",
      "id": "9c24b812-d155-4a3b-86ee-315a77b6b192",
      "identifier": [ {
        "value": "1193164"
      } ],
      "version": "2020-10-30T09:45:23.026Z",
      "status": "active",
      "experimental": false,
      "date": "2020-10-30T09:45:23+00:00",
      "publisher": "User ID: 'HOLDENR' User name: 'Rachael Holden' User skill set: 'T3'",
      "lastReviewDate": "2020-10-30",
      "subjectType": [ "Patient" ],
      "item": [ {
        "linkId": "1193164",
        "prefix": "15000",
        "text": "FROM WHAT YOU HAVE HEARD IS THIS A MINOR INJURY?",
        "type": "choice",
        "required": true,
        "repeats": false,
        "option": [ {
          "valueString": "yes - a minor bite or sting (specify), Selected: true"
        }, {
          "valueString": "yes - a scratch, graze or minor wound, Selected: false"
        }, {
          "valueString": "yes - skin minor foreign body or skin glued, Selected: false"
        }, {
          "valueString": "yes - trauma blisters, Selected: false"
        }, {
          "valueString": "yes - a single finger or toe injury, Selected: false"
        }, {
          "valueString": "not sure, Selected: false"
        }, {
          "valueString": "no, Selected: false"
        } ]
      } ]
    }
  }, {
    "fullUrl": "urn:uuid:f7ce468e-9c98-475c-8c9f-84c32c4239cc",
    "resource": {
      "resourceType": "QuestionnaireResponse",
      "id": "f7ce468e-9c98-475c-8c9f-84c32c4239cc",
      "identifier": {
        "value": "1193164"
      },
      "questionnaire": {
        "reference": "urn:uuid:be907920-71f7-489d-80f3-3788dd0fb94a"
      },
      "status": "completed",
      "subject": {
        "reference": "urn:uuid:14345537-a6d3-4da9-97b8-d28eadb32ed2"
      },
      "context": {
        "reference": "urn:uuid:744b2de4-fb18-4d95-970e-e0b66b3196bd"
      },
      "authored": "2020-10-30T09:45:23+00:00",
      "item": [ {
        "linkId": "Tx225125",
        "text": "SYSTEM_INJURYMODULE",
        "answer": [ {
          "valueString": "==\"injurymodule\""
        } ]
      } ]
    }
  }, {
    "fullUrl": "urn:uuid:be907920-71f7-489d-80f3-3788dd0fb94a",
    "resource": {
      "resourceType": "Questionnaire",
      "id": "be907920-71f7-489d-80f3-3788dd0fb94a",
      "identifier": [ {
        "value": "1193164"
      } ],
      "version": "2020-10-30T09:45:23.026Z",
      "status": "active",
      "experimental": false,
      "date": "2020-10-30T09:45:23+00:00",
      "publisher": "User ID: 'HOLDENR' User name: 'Rachael Holden' User skill set: 'T3'",
      "lastReviewDate": "2020-10-30",
      "subjectType": [ "Patient" ],
      "item": [ {
        "linkId": "1193164",
        "prefix": "23700",
        "text": "SYSTEM_INJURYMODULE",
        "type": "choice",
        "required": true,
        "repeats": false,
        "option": [ {
          "valueString": "==\"injurymodule\", Selected: true"
        }, {
          "valueString": "*, Selected: false"
        } ]
      } ]
    }
  }, {
    "fullUrl": "urn:uuid:199f8f40-8bd7-47e2-ad6e-c70d1f117ac7",
    "resource": {
      "resourceType": "QuestionnaireResponse",
      "id": "199f8f40-8bd7-47e2-ad6e-c70d1f117ac7",
      "identifier": {
        "value": "1193164"
      },
      "questionnaire": {
        "reference": "urn:uuid:b0b83a08-12ca-4b6a-87bc-1932f574ed44"
      },
      "status": "completed",
      "subject": {
        "reference": "urn:uuid:14345537-a6d3-4da9-97b8-d28eadb32ed2"
      },
      "context": {
        "reference": "urn:uuid:744b2de4-fb18-4d95-970e-e0b66b3196bd"
      },
      "authored": "2020-10-30T09:45:23+00:00"
    }
  }, {
    "fullUrl": "urn:uuid:b0b83a08-12ca-4b6a-87bc-1932f574ed44",
    "resource": {
      "resourceType": "Questionnaire",
      "id": "b0b83a08-12ca-4b6a-87bc-1932f574ed44",
      "identifier": [ {
        "value": "1193164"
      } ],
      "version": "2020-10-30T09:45:23.026Z",
      "status": "active",
      "experimental": false,
      "date": "2020-10-30T09:45:23+00:00",
      "publisher": "User ID: 'HOLDENR' User name: 'Rachael Holden' User skill set: 'T3'",
      "lastReviewDate": "2020-10-30",
      "subjectType": [ "Patient" ]
    }
  }, {
    "fullUrl": "urn:uuid:0c7f363b-d34b-4c2e-970d-7c57a04a123a",
    "resource": {
      "resourceType": "QuestionnaireResponse",
      "id": "0c7f363b-d34b-4c2e-970d-7c57a04a123a",
      "identifier": {
        "value": "1193164"
      },
      "questionnaire": {
        "reference": "urn:uuid:06e2df6f-9901-4624-b91a-2c65a2aa4ba3"
      },
      "status": "completed",
      "subject": {
        "reference": "urn:uuid:14345537-a6d3-4da9-97b8-d28eadb32ed2"
      },
      "context": {
        "reference": "urn:uuid:744b2de4-fb18-4d95-970e-e0b66b3196bd"
      },
      "authored": "2020-10-30T09:45:23+00:00",
      "item": [ {
        "linkId": "Tx3529",
        "text": "WHAT WAS THE CAUSE?",
        "answer": [ {
          "valueString": "an insect or spider (specify if known)"
        } ]
      } ]
    }
  }, {
    "fullUrl": "urn:uuid:06e2df6f-9901-4624-b91a-2c65a2aa4ba3",
    "resource": {
      "resourceType": "Questionnaire",
      "id": "06e2df6f-9901-4624-b91a-2c65a2aa4ba3",
      "identifier": [ {
        "value": "1193164"
      } ],
      "version": "2020-10-30T09:45:23.026Z",
      "status": "active",
      "experimental": false,
      "date": "2020-10-30T09:45:23+00:00",
      "publisher": "User ID: 'HOLDENR' User name: 'Rachael Holden' User skill set: 'T3'",
      "lastReviewDate": "2020-10-30",
      "subjectType": [ "Patient" ],
      "item": [ {
        "linkId": "1193164",
        "prefix": "0",
        "text": "WHAT WAS THE CAUSE?",
        "type": "choice",
        "required": true,
        "repeats": false,
        "option": [ {
          "valueString": "a person, Selected: false"
        }, {
          "valueString": "an animal (specify if known), Selected: false"
        }, {
          "valueString": "a snake (specify if known), Selected: false"
        }, {
          "valueString": "an insect or spider (specify if known), Selected: true"
        }, {
          "valueString": "stung by a water creature (specify if known), Selected: false"
        }, {
          "valueString": "bitten by a water creature (specify if known), Selected: false"
        }, {
          "valueString": "not sure, Selected: false"
        } ]
      } ]
    }
  }, {
    "fullUrl": "urn:uuid:ebe77262-e113-4ff9-9eda-9dfb2317dcd2",
    "resource": {
      "resourceType": "QuestionnaireResponse",
      "id": "ebe77262-e113-4ff9-9eda-9dfb2317dcd2",
      "identifier": {
        "value": "1193164"
      },
      "questionnaire": {
        "reference": "urn:uuid:37ee774e-1e0b-4ef7-af6e-fdc713479531"
      },
      "status": "completed",
      "subject": {
        "reference": "urn:uuid:14345537-a6d3-4da9-97b8-d28eadb32ed2"
      },
      "context": {
        "reference": "urn:uuid:744b2de4-fb18-4d95-970e-e0b66b3196bd"
      },
      "authored": "2020-10-30T09:45:23+00:00"
    }
  }, {
    "fullUrl": "urn:uuid:37ee774e-1e0b-4ef7-af6e-fdc713479531",
    "resource": {
      "resourceType": "Questionnaire",
      "id": "37ee774e-1e0b-4ef7-af6e-fdc713479531",
      "identifier": [ {
        "value": "1193164"
      } ],
      "version": "2020-10-30T09:45:23.026Z",
      "status": "active",
      "experimental": false,
      "date": "2020-10-30T09:45:23+00:00",
      "publisher": "User ID: 'HOLDENR' User name: 'Rachael Holden' User skill set: 'T3'",
      "lastReviewDate": "2020-10-30",
      "subjectType": [ "Patient" ]
    }
  }, {
    "fullUrl": "urn:uuid:ac6c20e6-1adc-4fda-8384-e299894090b5",
    "resource": {
      "resourceType": "QuestionnaireResponse",
      "id": "ac6c20e6-1adc-4fda-8384-e299894090b5",
      "identifier": {
        "value": "1193164"
      },
      "questionnaire": {
        "reference": "urn:uuid:b6026bbe-0985-49f3-840e-4e652cc3341b"
      },
      "status": "completed",
      "subject": {
        "reference": "urn:uuid:14345537-a6d3-4da9-97b8-d28eadb32ed2"
      },
      "context": {
        "reference": "urn:uuid:744b2de4-fb18-4d95-970e-e0b66b3196bd"
      },
      "authored": "2020-10-30T09:45:23+00:00",
      "item": [ {
        "linkId": "Tx220302",
        "text": "Did it happen WITHIN THE LAST 6 HOURS?",
        "answer": [ {
          "valueString": "no"
        } ]
      } ]
    }
  }, {
    "fullUrl": "urn:uuid:b6026bbe-0985-49f3-840e-4e652cc3341b",
    "resource": {
      "resourceType": "Questionnaire",
      "id": "b6026bbe-0985-49f3-840e-4e652cc3341b",
      "identifier": [ {
        "value": "1193164"
      } ],
      "version": "2020-10-30T09:45:23.026Z",
      "status": "active",
      "experimental": false,
      "date": "2020-10-30T09:45:23+00:00",
      "publisher": "User ID: 'HOLDENR' User name: 'Rachael Holden' User skill set: 'T3'",
      "lastReviewDate": "2020-10-30",
      "subjectType": [ "Patient" ],
      "item": [ {
        "linkId": "1193164",
        "prefix": "0",
        "text": "Did it happen WITHIN THE LAST 6 HOURS?",
        "type": "choice",
        "required": true,
        "repeats": false,
        "option": [ {
          "valueString": "yes, Selected: false"
        }, {
          "valueString": "not sure, Selected: false"
        }, {
          "valueString": "no, Selected: true"
        } ]
      } ]
    }
  }, {
    "fullUrl": "urn:uuid:b4142f9a-2751-4ab2-bcf7-42a595301ac5",
    "resource": {
      "resourceType": "QuestionnaireResponse",
      "id": "b4142f9a-2751-4ab2-bcf7-42a595301ac5",
      "identifier": {
        "value": "1193164"
      },
      "questionnaire": {
        "reference": "urn:uuid:693bf705-dc80-43c2-9435-11aa1d24d215"
      },
      "status": "completed",
      "subject": {
        "reference": "urn:uuid:14345537-a6d3-4da9-97b8-d28eadb32ed2"
      },
      "context": {
        "reference": "urn:uuid:744b2de4-fb18-4d95-970e-e0b66b3196bd"
      },
      "authored": "2020-10-30T09:45:23+00:00",
      "item": [ {
        "linkId": "Tx3543",
        "text": "Have you been stung 10 or more times?",
        "answer": [ {
          "valueString": "no"
        } ]
      } ]
    }
  }, {
    "fullUrl": "urn:uuid:693bf705-dc80-43c2-9435-11aa1d24d215",
    "resource": {
      "resourceType": "Questionnaire",
      "id": "693bf705-dc80-43c2-9435-11aa1d24d215",
      "identifier": [ {
        "value": "1193164"
      } ],
      "version": "2020-10-30T09:45:23.026Z",
      "status": "active",
      "experimental": false,
      "date": "2020-10-30T09:45:23+00:00",
      "publisher": "User ID: 'HOLDENR' User name: 'Rachael Holden' User skill set: 'T3'",
      "lastReviewDate": "2020-10-30",
      "subjectType": [ "Patient" ],
      "item": [ {
        "linkId": "1193164",
        "prefix": "2900",
        "text": "Have you been stung 10 or more times?",
        "type": "choice",
        "required": true,
        "repeats": false,
        "option": [ {
          "valueString": "yes, Selected: false"
        }, {
          "valueString": "not sure, Selected: false"
        }, {
          "valueString": "no, Selected: true"
        } ]
      } ]
    }
  }, {
    "fullUrl": "urn:uuid:eff90690-3576-4917-99c0-a59fc4dec370",
    "resource": {
      "resourceType": "QuestionnaireResponse",
      "id": "eff90690-3576-4917-99c0-a59fc4dec370",
      "identifier": {
        "value": "1193164"
      },
      "questionnaire": {
        "reference": "urn:uuid:fde5589d-dd5c-45d6-8f30-9309309dedcb"
      },
      "status": "completed",
      "subject": {
        "reference": "urn:uuid:14345537-a6d3-4da9-97b8-d28eadb32ed2"
      },
      "context": {
        "reference": "urn:uuid:744b2de4-fb18-4d95-970e-e0b66b3196bd"
      },
      "authored": "2020-10-30T09:45:23+00:00",
      "item": [ {
        "linkId": "Tx3557",
        "text": "Have you got nausea or vomiting now?",
        "answer": [ {
          "valueString": "no"
        } ]
      } ]
    }
  }, {
    "fullUrl": "urn:uuid:fde5589d-dd5c-45d6-8f30-9309309dedcb",
    "resource": {
      "resourceType": "Questionnaire",
      "id": "fde5589d-dd5c-45d6-8f30-9309309dedcb",
      "identifier": [ {
        "value": "1193164"
      } ],
      "version": "2020-10-30T09:45:23.026Z",
      "status": "active",
      "experimental": false,
      "date": "2020-10-30T09:45:23+00:00",
      "publisher": "User ID: 'HOLDENR' User name: 'Rachael Holden' User skill set: 'T3'",
      "lastReviewDate": "2020-10-30",
      "subjectType": [ "Patient" ],
      "item": [ {
        "linkId": "1193164",
        "prefix": "3000",
        "text": "Have you got nausea or vomiting now?",
        "type": "choice",
        "required": true,
        "repeats": false,
        "option": [ {
          "valueString": "yes, Selected: false"
        }, {
          "valueString": "not sure, Selected: false"
        }, {
          "valueString": "no, Selected: true"
        } ]
      } ]
    }
  }, {
    "fullUrl": "urn:uuid:10fb5c9a-8191-44fb-a7e0-4b1911b83416",
    "resource": {
      "resourceType": "QuestionnaireResponse",
      "id": "10fb5c9a-8191-44fb-a7e0-4b1911b83416",
      "identifier": {
        "value": "1193164"
      },
      "questionnaire": {
        "reference": "urn:uuid:9a09b779-d6cb-4023-9fb9-189f0667190c"
      },
      "status": "completed",
      "subject": {
        "reference": "urn:uuid:14345537-a6d3-4da9-97b8-d28eadb32ed2"
      },
      "context": {
        "reference": "urn:uuid:744b2de4-fb18-4d95-970e-e0b66b3196bd"
      },
      "authored": "2020-10-30T09:45:23+00:00",
      "item": [ {
        "linkId": "Tx3561",
        "text": "Have you been bitten or stung in any of these areas?",
        "answer": [ {
          "valueString": "no"
        } ]
      } ]
    }
  }, {
    "fullUrl": "urn:uuid:9a09b779-d6cb-4023-9fb9-189f0667190c",
    "resource": {
      "resourceType": "Questionnaire",
      "id": "9a09b779-d6cb-4023-9fb9-189f0667190c",
      "identifier": [ {
        "value": "1193164"
      } ],
      "version": "2020-10-30T09:45:23.026Z",
      "status": "active",
      "experimental": false,
      "date": "2020-10-30T09:45:23+00:00",
      "publisher": "User ID: 'HOLDENR' User name: 'Rachael Holden' User skill set: 'T3'",
      "lastReviewDate": "2020-10-30",
      "subjectType": [ "Patient" ],
      "item": [ {
        "linkId": "1193164",
        "prefix": "3900",
        "text": "Have you been bitten or stung in any of these areas?",
        "type": "choice",
        "required": true,
        "repeats": false,
        "option": [ {
          "valueString": "the eyeball, Selected: false"
        }, {
          "valueString": "inside the mouth or on the lips, Selected: false"
        }, {
          "valueString": "limb, Selected: false"
        }, {
          "valueString": "not sure, Selected: false"
        }, {
          "valueString": "no, Selected: true"
        } ]
      } ]
    }
  }, {
    "fullUrl": "urn:uuid:6c2d7d6e-96db-4256-959d-5e982faac234",
    "resource": {
      "resourceType": "QuestionnaireResponse",
      "id": "6c2d7d6e-96db-4256-959d-5e982faac234",
      "identifier": {
        "value": "1193164"
      },
      "questionnaire": {
        "reference": "urn:uuid:64cc0a92-c0a0-4106-bbc6-79a803365936"
      },
      "status": "completed",
      "subject": {
        "reference": "urn:uuid:14345537-a6d3-4da9-97b8-d28eadb32ed2"
      },
      "context": {
        "reference": "urn:uuid:744b2de4-fb18-4d95-970e-e0b66b3196bd"
      },
      "authored": "2020-10-30T09:45:23+00:00",
      "item": [ {
        "linkId": "Tx3544",
        "text": "Is the insect or part of the insect still attached to the skin?",
        "answer": [ {
          "valueString": "no"
        } ]
      } ]
    }
  }, {
    "fullUrl": "urn:uuid:64cc0a92-c0a0-4106-bbc6-79a803365936",
    "resource": {
      "resourceType": "Questionnaire",
      "id": "64cc0a92-c0a0-4106-bbc6-79a803365936",
      "identifier": [ {
        "value": "1193164"
      } ],
      "version": "2020-10-30T09:45:23.026Z",
      "status": "active",
      "experimental": false,
      "date": "2020-10-30T09:45:23+00:00",
      "publisher": "User ID: 'HOLDENR' User name: 'Rachael Holden' User skill set: 'T3'",
      "lastReviewDate": "2020-10-30",
      "subjectType": [ "Patient" ],
      "item": [ {
        "linkId": "1193164",
        "prefix": "9400",
        "text": "Is the insect or part of the insect still attached to the skin?",
        "type": "choice",
        "required": true,
        "repeats": false,
        "option": [ {
          "valueString": "yes, Selected: false"
        }, {
          "valueString": "not sure, Selected: false"
        }, {
          "valueString": "no, Selected: true"
        } ]
      } ]
    }
  }, {
    "fullUrl": "urn:uuid:88777710-ec62-4627-82c4-30405d0a3ab5",
    "resource": {
      "resourceType": "QuestionnaireResponse",
      "id": "88777710-ec62-4627-82c4-30405d0a3ab5",
      "identifier": {
        "value": "1193164"
      },
      "questionnaire": {
        "reference": "urn:uuid:d1512189-953f-4c29-a46a-071624c4664c"
      },
      "status": "completed",
      "subject": {
        "reference": "urn:uuid:14345537-a6d3-4da9-97b8-d28eadb32ed2"
      },
      "context": {
        "reference": "urn:uuid:744b2de4-fb18-4d95-970e-e0b66b3196bd"
      },
      "authored": "2020-10-30T09:45:23+00:00",
      "item": [ {
        "linkId": "Tx1449",
        "text": "Have you got very severe pain deep inside the affected area?",
        "answer": [ {
          "valueString": "yes"
        } ]
      } ]
    }
  }, {
    "fullUrl": "urn:uuid:d1512189-953f-4c29-a46a-071624c4664c",
    "resource": {
      "resourceType": "Questionnaire",
      "id": "d1512189-953f-4c29-a46a-071624c4664c",
      "identifier": [ {
        "value": "1193164"
      } ],
      "version": "2020-10-30T09:45:23.026Z",
      "status": "active",
      "experimental": false,
      "date": "2020-10-30T09:45:23+00:00",
      "publisher": "User ID: 'HOLDENR' User name: 'Rachael Holden' User skill set: 'T3'",
      "lastReviewDate": "2020-10-30",
      "subjectType": [ "Patient" ],
      "item": [ {
        "linkId": "1193164",
        "prefix": "19700",
        "text": "Have you got very severe pain deep inside the affected area?",
        "type": "choice",
        "required": true,
        "repeats": false,
        "option": [ {
          "valueString": "yes, Selected: true"
        }, {
          "valueString": "not sure, Selected: false"
        }, {
          "valueString": "no, Selected: false"
        } ]
      } ]
    }
  }, {
    "fullUrl": "urn:uuid:b09f9847-66b7-426a-bfbd-ffcd58583e63",
    "resource": {
      "resourceType": "QuestionnaireResponse",
      "id": "b09f9847-66b7-426a-bfbd-ffcd58583e63",
      "identifier": {
        "value": "1193164"
      },
      "questionnaire": {
        "reference": "urn:uuid:e8614448-2a7b-4a9d-aef7-128ff6e4f566"
      },
      "status": "completed",
      "subject": {
        "reference": "urn:uuid:14345537-a6d3-4da9-97b8-d28eadb32ed2"
      },
      "context": {
        "reference": "urn:uuid:744b2de4-fb18-4d95-970e-e0b66b3196bd"
      },
      "authored": "2020-10-30T09:45:23+00:00",
      "item": [ {
        "linkId": "Tx221449",
        "text": "STRING:SDPCFullPrimaryCareassessmentandprescribingcapability",
        "answer": [ {
          "valueString": "\"PC full Primary Care assessment and prescribing capability\""
        } ]
      } ]
    }
  }, {
    "fullUrl": "urn:uuid:e8614448-2a7b-4a9d-aef7-128ff6e4f566",
    "resource": {
      "resourceType": "Questionnaire",
      "id": "e8614448-2a7b-4a9d-aef7-128ff6e4f566",
      "identifier": [ {
        "value": "1193164"
      } ],
      "version": "2020-10-30T09:45:23.026Z",
      "status": "active",
      "experimental": false,
      "date": "2020-10-30T09:45:23+00:00",
      "publisher": "User ID: 'HOLDENR' User name: 'Rachael Holden' User skill set: 'T3'",
      "lastReviewDate": "2020-10-30",
      "subjectType": [ "Patient" ],
      "item": [ {
        "linkId": "1193164",
        "prefix": "19900",
        "text": "STRING:SDPCFullPrimaryCareassessmentandprescribingcapability",
        "type": "choice",
        "required": true,
        "repeats": false,
        "option": [ {
          "valueString": "\"PC full Primary Care assessment and prescribing capability\", Selected: true"
        } ]
      } ]
    }
  }, {
    "fullUrl": "urn:uuid:a2e8d498-a3b9-4f4c-857f-bc2bbe01007c",
    "resource": {
      "resourceType": "QuestionnaireResponse",
      "id": "a2e8d498-a3b9-4f4c-857f-bc2bbe01007c",
      "identifier": {
        "value": "1193164"
      },
      "questionnaire": {
        "reference": "urn:uuid:c0fe5243-d4c3-4c67-9e70-01dc12bfbcd9"
      },
      "status": "completed",
      "subject": {
        "reference": "urn:uuid:14345537-a6d3-4da9-97b8-d28eadb32ed2"
      },
      "context": {
        "reference": "urn:uuid:744b2de4-fb18-4d95-970e-e0b66b3196bd"
      },
      "authored": "2020-10-30T09:45:23+00:00"
    }
  }, {
    "fullUrl": "urn:uuid:c0fe5243-d4c3-4c67-9e70-01dc12bfbcd9",
    "resource": {
      "resourceType": "Questionnaire",
      "id": "c0fe5243-d4c3-4c67-9e70-01dc12bfbcd9",
      "identifier": [ {
        "value": "1193164"
      } ],
      "version": "2020-10-30T09:45:23.026Z",
      "status": "active",
      "experimental": false,
      "date": "2020-10-30T09:45:23+00:00",
      "publisher": "User ID: 'HOLDENR' User name: 'Rachael Holden' User skill set: 'T3'",
      "lastReviewDate": "2020-10-30",
      "subjectType": [ "Patient" ]
    }
  }, {
    "fullUrl": "urn:uuid:0f6bf3bd-edab-4470-983f-32ae103c24bb",
    "resource": {
      "resourceType": "QuestionnaireResponse",
      "id": "0f6bf3bd-edab-4470-983f-32ae103c24bb",
      "identifier": {
        "value": "1193164"
      },
      "questionnaire": {
        "reference": "urn:uuid:938690ab-3ce2-4a93-a79b-e38a6683463a"
      },
      "status": "completed",
      "subject": {
        "reference": "urn:uuid:14345537-a6d3-4da9-97b8-d28eadb32ed2"
      },
      "context": {
        "reference": "urn:uuid:744b2de4-fb18-4d95-970e-e0b66b3196bd"
      },
      "authored": "2020-10-30T09:45:23+00:00"
    }
  }, {
    "fullUrl": "urn:uuid:938690ab-3ce2-4a93-a79b-e38a6683463a",
    "resource": {
      "resourceType": "Questionnaire",
      "id": "938690ab-3ce2-4a93-a79b-e38a6683463a",
      "identifier": [ {
        "value": "1193164"
      } ],
      "version": "2020-10-30T09:45:23.026Z",
      "status": "active",
      "experimental": false,
      "date": "2020-10-30T09:45:23+00:00",
      "publisher": "User ID: 'HOLDENR' User name: 'Rachael Holden' User skill set: 'T3'",
      "lastReviewDate": "2020-10-30",
      "subjectType": [ "Patient" ]
    }
  }, {
    "fullUrl": "urn:uuid:1b99b353-a7b4-4e6a-a796-411c5ae2f38b",
    "resource": {
      "resourceType": "QuestionnaireResponse",
      "id": "1b99b353-a7b4-4e6a-a796-411c5ae2f38b",
      "identifier": {
        "value": "1193164"
      },
      "questionnaire": {
        "reference": "urn:uuid:68803c62-a0c1-45f8-bd2e-c35917cefb64"
      },
      "status": "completed",
      "subject": {
        "reference": "urn:uuid:14345537-a6d3-4da9-97b8-d28eadb32ed2"
      },
      "context": {
        "reference": "urn:uuid:744b2de4-fb18-4d95-970e-e0b66b3196bd"
      },
      "authored": "2020-10-30T09:45:23+00:00"
    }
  }, {
    "fullUrl": "urn:uuid:68803c62-a0c1-45f8-bd2e-c35917cefb64",
    "resource": {
      "resourceType": "Questionnaire",
      "id": "68803c62-a0c1-45f8-bd2e-c35917cefb64",
      "identifier": [ {
        "value": "1193164"
      } ],
      "version": "2020-10-30T09:45:23.026Z",
      "status": "active",
      "experimental": false,
      "date": "2020-10-30T09:45:23+00:00",
      "publisher": "User ID: 'HOLDENR' User name: 'Rachael Holden' User skill set: 'T3'",
      "lastReviewDate": "2020-10-30",
      "subjectType": [ "Patient" ]
    }
  }, {
    "fullUrl": "urn:uuid:b7fd2f3b-bcbf-4ed5-89a2-f185a9d018bb",
    "resource": {
      "resourceType": "Observation",
      "id": "b7fd2f3b-bcbf-4ed5-89a2-f185a9d018bb",
      "status": "final",
      "code": {
        "coding": [ {
          "system": "http://snomed.info/sct",
          "code": "33962009",
          "display": "Presenting complaint"
        } ]
      },
      "subject": {
        "reference": "urn:uuid:14345537-a6d3-4da9-97b8-d28eadb32ed2"
      },
      "context": {
        "reference": "urn:uuid:744b2de4-fb18-4d95-970e-e0b66b3196bd"
      }
    }
  }, {
    "fullUrl": "urn:uuid:7fd7b449-19c6-47ec-b3f0-f526f2f772ad",
    "resource": {
      "resourceType": "PractitionerRole",
      "id": "7fd7b449-19c6-47ec-b3f0-f526f2f772ad",
      "practitioner": {
        "reference": "urn:uuid:7ddddad5-be98-4e9d-ab70-8849294437f5"
      },
      "organization": {
        "reference": "urn:uuid:4837cb7e-b8cb-4d6e-aa94-de8c10ba116c"
      },
      "code": [ {
        "coding": [ {
          "system": "2.16.840.1.113883.2.1.3.2.4.17.339",
          "code": "DOCTOR",
          "display": "Doctor"
        } ]
      } ]
    }
  }, {
    "fullUrl": "urn:uuid:4837cb7e-b8cb-4d6e-aa94-de8c10ba116c",
    "resource": {
      "resourceType": "Organization",
      "id": "4837cb7e-b8cb-4d6e-aa94-de8c10ba116c",
      "identifier": [ {
        "value": "RYA06"
      } ],
      "name": "WMAS - Navigation Point Call Centre (West Midlands Single Instance)"
    }
  }, {
    "fullUrl": "urn:uuid:d362f470-b7b2-4e35-862c-6b09f51e2aec",
    "resource": {
      "resourceType": "PractitionerRole",
      "id": "d362f470-b7b2-4e35-862c-6b09f51e2aec",
      "practitioner": {
        "reference": "urn:uuid:09c1d0ee-4504-47a3-9f50-2e8db8c49109"
      },
      "organization": {
        "reference": "urn:uuid:62197b2a-40ba-40ef-a3e5-fb015e8591fb"
      },
      "code": [ {
        "coding": [ {
          "system": "2.16.840.1.113883.2.1.3.2.4.17.196",
          "code": "R0010",
          "display": "Medical Director"
        } ]
      } ]
    }
  }, {
    "fullUrl": "urn:uuid:62197b2a-40ba-40ef-a3e5-fb015e8591fb",
    "resource": {
      "resourceType": "Organization",
      "id": "62197b2a-40ba-40ef-a3e5-fb015e8591fb",
      "identifier": [ {
        "value": "RYA06"
      } ],
      "name": "West Midlands Single Instance"
    }
  }, {
    "fullUrl": "urn:uuid:86ae9437-e61f-435e-9da6-03c91fc9c9c5",
    "resource": {
      "resourceType": "RelatedPerson",
      "id": "86ae9437-e61f-435e-9da6-03c91fc9c9c5",
      "patient": {
        "reference": "urn:uuid:14345537-a6d3-4da9-97b8-d28eadb32ed2"
      },
      "relationship": {
        "coding": [ {
          "system": "http://hl7.org/fhir/v2/0131",
          "code": "C",
          "display": "Emergency Contact"
        } ]
      },
      "telecom": [ {
        "system": "phone",
        "value": "tel:01204428013"
      } ]
    }
  }, {
    "fullUrl": "urn:uuid:6ffd75ef-edf7-4109-aca2-cd1afe651d17",
    "resource": {
      "resourceType": "Device",
      "id": "6ffd75ef-edf7-4109-aca2-cd1afe651d17",
      "model": "111 Adaptor",
      "version": "0.11.0"
    }
  }, {
    "fullUrl": "urn:uuid:37fae1da-dc7c-4f0a-bd3b-a09ce926baa2",
    "resource": {
      "resourceType": "List",
      "id": "37fae1da-dc7c-4f0a-bd3b-a09ce926baa2",
      "status": "current",
      "mode": "working",
      "title": "111 Report List",
      "code": {
        "coding": [ {
          "system": "http://snomed.info/sct",
          "code": "225390008",
          "display": "Triage"
        } ]
      },
      "subject": {
        "reference": "urn:uuid:14345537-a6d3-4da9-97b8-d28eadb32ed2"
      },
      "encounter": {
        "reference": "urn:uuid:744b2de4-fb18-4d95-970e-e0b66b3196bd"
      },
      "date": "2021-10-01T07:33:59+00:00",
      "source": {
        "reference": "urn:uuid:6ffd75ef-edf7-4109-aca2-cd1afe651d17"
      },
      "orderedBy": {
        "coding": [ {
          "system": "http://hl7.org/fhir/list-order",
          "code": "event-date",
          "display": "Sorted by Event Date"
        } ]
      },
      "entry": [ {
        "item": {
          "reference": "urn:uuid:7ddddad5-be98-4e9d-ab70-8849294437f5"
        }
      }, {
        "item": {
          "reference": "urn:uuid:4837cb7e-b8cb-4d6e-aa94-de8c10ba116c"
        }
      }, {
        "item": {
          "reference": "urn:uuid:e66d903a-d1ff-48c7-9ede-43103ade75b7"
        }
      }, {
        "item": {
          "reference": "urn:uuid:90e89234-8d79-493d-b1d7-4410730789f7"
        }
      }, {
        "item": {
          "reference": "urn:uuid:b7fd2f3b-bcbf-4ed5-89a2-f185a9d018bb"
        }
      }, {
        "item": {
          "reference": "urn:uuid:942c5f0b-d02d-4aee-9144-85bc4f246205"
        }
      }, {
        "item": {
          "reference": "urn:uuid:09c1d0ee-4504-47a3-9f50-2e8db8c49109"
        }
      }, {
        "item": {
          "reference": "urn:uuid:64b9221c-79a6-4ffb-b3c7-c8c7260ed438"
        }
      }, {
        "item": {
          "reference": "urn:uuid:987357e6-7247-4103-ac65-ede400fb8039"
        }
      }, {
        "item": {
          "reference": "urn:uuid:86ae9437-e61f-435e-9da6-03c91fc9c9c5"
        }
      }, {
        "item": {
          "reference": "urn:uuid:62197b2a-40ba-40ef-a3e5-fb015e8591fb"
        }
      }, {
        "item": {
          "reference": "urn:uuid:1b0935c2-5216-4ce3-a1fd-733814ff5a74"
        }
      }, {
        "item": {
          "reference": "urn:uuid:68803c62-a0c1-45f8-bd2e-c35917cefb64"
        }
      }, {
        "item": {
          "reference": "urn:uuid:199f8f40-8bd7-47e2-ad6e-c70d1f117ac7"
        }
      }, {
        "item": {
          "reference": "urn:uuid:b09f9847-66b7-426a-bfbd-ffcd58583e63"
        }
      }, {
        "item": {
          "reference": "urn:uuid:a2e0a761-031b-4cf6-9245-5c0a35bf12e8"
        }
      }, {
        "item": {
          "reference": "urn:uuid:fde5589d-dd5c-45d6-8f30-9309309dedcb"
        }
      }, {
        "item": {
          "reference": "urn:uuid:b0b83a08-12ca-4b6a-87bc-1932f574ed44"
        }
      }, {
        "item": {
          "reference": "urn:uuid:760ffa96-63d9-4ea0-9ded-fad17294b73a"
        }
      }, {
        "item": {
          "reference": "urn:uuid:c0fe5243-d4c3-4c67-9e70-01dc12bfbcd9"
        }
      }, {
        "item": {
          "reference": "urn:uuid:938690ab-3ce2-4a93-a79b-e38a6683463a"
        }
      }, {
        "item": {
          "reference": "urn:uuid:bc02766f-cea2-4b6d-b9b0-04fbe3a2d7a3"
        }
      }, {
        "item": {
          "reference": "urn:uuid:74351440-6839-47f5-b91f-a5b4e756fc5b"
        }
      }, {
        "item": {
          "reference": "urn:uuid:e8614448-2a7b-4a9d-aef7-128ff6e4f566"
        }
      }, {
        "item": {
          "reference": "urn:uuid:1f70441b-9abf-475d-b857-c9e4578f8890"
        }
      }, {
        "item": {
          "reference": "urn:uuid:0c7f363b-d34b-4c2e-970d-7c57a04a123a"
        }
      }, {
        "item": {
          "reference": "urn:uuid:ebe77262-e113-4ff9-9eda-9dfb2317dcd2"
        }
      }, {
        "item": {
          "reference": "urn:uuid:83eee3df-aacb-43d4-acb9-d879d45dd518"
        }
      }, {
        "item": {
          "reference": "urn:uuid:60228c84-6e8a-4d90-a929-7d79445d3b0c"
        }
      }, {
        "item": {
          "reference": "urn:uuid:2d9b5233-25b7-44af-9744-538909c3e50a"
        }
      }, {
        "item": {
          "reference": "urn:uuid:37ee774e-1e0b-4ef7-af6e-fdc713479531"
        }
      }, {
        "item": {
          "reference": "urn:uuid:eff90690-3576-4917-99c0-a59fc4dec370"
        }
      }, {
        "item": {
          "reference": "urn:uuid:be907920-71f7-489d-80f3-3788dd0fb94a"
        }
      }, {
        "item": {
          "reference": "urn:uuid:ad07ed78-7ed0-4cc2-ba01-307fcabddef4"
        }
      }, {
        "item": {
          "reference": "urn:uuid:c37beff8-361e-4cbf-80c0-07f1542f1949"
        }
      }, {
        "item": {
          "reference": "urn:uuid:9a09b779-d6cb-4023-9fb9-189f0667190c"
        }
      }, {
        "item": {
          "reference": "urn:uuid:fc69fbce-b6cb-453c-83b6-4d959573df82"
        }
      }, {
        "item": {
          "reference": "urn:uuid:88777710-ec62-4627-82c4-30405d0a3ab5"
        }
      }, {
        "item": {
          "reference": "urn:uuid:693bf705-dc80-43c2-9435-11aa1d24d215"
        }
      }, {
        "item": {
          "reference": "urn:uuid:0f6bf3bd-edab-4470-983f-32ae103c24bb"
        }
      }, {
        "item": {
          "reference": "urn:uuid:b4142f9a-2751-4ab2-bcf7-42a595301ac5"
        }
      }, {
        "item": {
          "reference": "urn:uuid:10fb5c9a-8191-44fb-a7e0-4b1911b83416"
        }
      }, {
        "item": {
          "reference": "urn:uuid:1b99b353-a7b4-4e6a-a796-411c5ae2f38b"
        }
      }, {
        "item": {
          "reference": "urn:uuid:a2e8d498-a3b9-4f4c-857f-bc2bbe01007c"
        }
      }, {
        "item": {
          "reference": "urn:uuid:f7ce468e-9c98-475c-8c9f-84c32c4239cc"
        }
      }, {
        "item": {
          "reference": "urn:uuid:b6026bbe-0985-49f3-840e-4e652cc3341b"
        }
      }, {
        "item": {
          "reference": "urn:uuid:fcda9127-3560-40fe-942e-7188bc52c2cb"
        }
      }, {
        "item": {
          "reference": "urn:uuid:ac6c20e6-1adc-4fda-8384-e299894090b5"
        }
      }, {
        "item": {
          "reference": "urn:uuid:c06177b1-8165-48a2-9c23-aa4cf3cb560b"
        }
      }, {
        "item": {
          "reference": "urn:uuid:c306a067-3fd1-4d46-a912-f170a44447d5"
        }
      }, {
        "item": {
          "reference": "urn:uuid:06e2df6f-9901-4624-b91a-2c65a2aa4ba3"
        }
      }, {
        "item": {
          "reference": "urn:uuid:64cc0a92-c0a0-4106-bbc6-79a803365936"
        }
      }, {
        "item": {
          "reference": "urn:uuid:9c24b812-d155-4a3b-86ee-315a77b6b192"
        }
      }, {
        "item": {
          "reference": "urn:uuid:d1512189-953f-4c29-a46a-071624c4664c"
        }
      }, {
        "item": {
          "reference": "urn:uuid:6c2d7d6e-96db-4256-959d-5e982faac234"
        }
      }, {
        "item": {
          "reference": "urn:uuid:79af17cc-605e-4bba-bc12-d6bd99094d48"
        }
      } ]
    }
  } ]
}