{
    "resourceType": "Bundle",
    "type": "transaction",
    "entry": [
        {
            "fullUrl": "urn:uuid:d7b9998e-9e14-469f-8418-779dd8bd3a10",
            "resource": {
                "resourceType": "Encounter",
                "status": "finished",
                "type": [
                    {
                        "text": "ADMS"
                    }
                ],
                "subject": {
                    "reference": "urn:uuid:397b1ddd-b441-4e86-b64e-77dc6f83fc2b"
                },
                "episodeOfCare": [
                    {
                        "reference": "urn:uuid:6bff3569-2257-46bc-b600-27c46b583fac"
                    }
                ],
                "incomingReferral": [
                    {
                        "reference": "urn:uuid:17e313ac-8417-4b20-a256-4423ab0f8918"
                    }
                ],
                "participant": [
                    {
                        "type": [
                            {
                                "text": "REFT"
                            }
                        ],
                        "period": {
                            "start": "2011-05-19T21:45:00+02:00",
                            "end": "2011-05-19T22:15:00+02:00"
                        },
                        "individual": {
                            "reference": "urn:uuid:a0a85e57-ca08-4103-babe-4e28c2197dc1"
                        }
                    },
                    {
                        "type": [
                            {
                                "text": "AUT"
                            }
                        ],
                        "period": {
                            "start": "2011-05-19T22:00:00+02:00"
                        },
                        "individual": {
                            "reference": "urn:uuid:8e5c1429-7484-4497-97d8-29235c3662e2"
                        }
                    },
                    {
                        "type": [
                            {
                                "text": "INF"
                            }
                        ],
                        "period": {
                            "start": "2011-05-19T21:45:00+02:00",
                            "end": "2011-05-19T22:15:00+02:00"
                        },
                        "individual": {
                            "reference": "urn:uuid:23d3ebdb-21af-4725-a232-7c1c9db6f1af"
                        }
                    }
                ],
                "appointment": {
                    "reference": "urn:uuid:a56b5cb5-97bb-4c7f-a15c-1b6de0986fa1"
                },
                "period": {
                    "start": "2011-05-19T22:00:00+02:00"
                },
                "diagnosis": [
                    {
                        "id": "urn:uuid:fd673018-fb84-49fb-a342-432b95866b26",
                        "condition": {
                            "reference": "urn:uuid:56345763-36c9-4d33-8882-5c4ce643ad87"
                        },
                        "role": {
                            "text": "role"
                        },
                        "rank": 1
                    }
                ],
                "location": [
                    {
                        "location": {
                            "reference": "urn:uuid:a7112f72-fab7-4b82-8f39-b41fd63f6e38"
                        },
                        "status": "active",
                        "period": {
                            "start": "2011-05-19T21:45:00+02:00",
                            "end": "2011-05-19T22:15:00+02:00"
                        }
                    }
                ],
                "serviceProvider": {
                    "reference": "urn:uuid:0b0f7d3e-d4f0-46a0-92ac-ae82ad391464"
                }
            }
        },
        {
            "fullUrl": "urn:uuid:0b0f7d3e-d4f0-46a0-92ac-ae82ad391464",
            "resource": {
                "resourceType": "Organization",
                "active": true,
                "type": [
                    {
                        "text": "CST"
                    }
                ],
                "name": "Broomfield Foundation Trust",
                "telecom": [
                    {
                        "system": "other",
                        "value": "tel:0123476895",
                        "use": "work"
                    }
                ],
                "address": [
                    {
                        "use": "work",
                        "line": [
                            "Broomfield Hospital",
                            "Bocking End"
                        ],
                        "city": "Braintree",
                        "postalCode": "CM7 9AB",
                        "country": "UK"
                    }
                ]
            }
        },
        {
            "fullUrl": "urn:uuid:a0a85e57-ca08-4103-babe-4e28c2197dc1",
            "resource": {
                "resourceType": "Practitioner",
                "active": true,
                "telecom": [
                    {
                        "system": "other",
                        "value": "tel:0123456789",
                        "use": "temp"
                    }
                ],
                "address": [
                    {
                        "line": [
                            "Church Street Walk in Centre",
                            "4 Church Street",
                            "Medway"
                        ],
                        "postalCode": "ME8 7TT"
                    }
                ]
            }
        },
        {
            "fullUrl": "urn:uuid:8e5c1429-7484-4497-97d8-29235c3662e2",
            "resource": {
                "resourceType": "Practitioner",
                "active": true,
                "name": [
                    {
                        "use": "official",
                        "family": "Jones",
                        "given": [
                            "Mary"
                        ]
                    }
                ]
            }
        },
        {
            "fullUrl": "urn:uuid:23d3ebdb-21af-4725-a232-7c1c9db6f1af",
            "resource": {
                "resourceType": "RelatedPerson",
                "active": true,
                "patient": {
                    "reference": "urn:uuid:397b1ddd-b441-4e86-b64e-77dc6f83fc2b"
                },
                "relationship": {
                    "text": "Spouse"
                },
                "name": [
                    {
                        "use": "official",
                        "family": "Bloggs",
                        "given": [
                            "Helga"
                        ]
                    }
                ],
                "telecom": [
                    {
                        "system": "other",
                        "value": "tel:07886554123",
                        "use": "mobile"
                    }
                ],
                "gender": "unknown",
                "address": [
                    {
                        "use": "home",
                        "line": [
                            "43 Summers Avenue",
                            "Somerset Street"
                        ],
                        "city": "Medway",
                        "postalCode": "ME5 7TY"
                    }
                ],
                "period": {
                    "start": "2011-05-19T21:45:00+02:00",
                    "end": "2011-05-19T22:15:00+02:00"
                }
            }
        },
        {
            "fullUrl": "urn:uuid:a7112f72-fab7-4b82-8f39-b41fd63f6e38",
            "resource": {
                "resourceType": "Location",
                "managingOrganization": {
                    "reference": "urn:uuid:2cd0ac72-7fc5-4128-8e4d-b975696e0ad6"
                }
            }
        },
        {
            "fullUrl": "urn:uuid:2cd0ac72-7fc5-4128-8e4d-b975696e0ad6",
            "resource": {
                "resourceType": "Organization",
                "type": [
                    {
                        "text": "GP Practice"
                    }
                ],
                "name": "Medway Medical Practice",
                "telecom": [
                    {
                        "system": "other",
                        "value": "tel:01634111222",
                        "use": "work"
                    }
                ],
                "address": [
                    {
                        "use": "work",
                        "line": [
                            "Springer Street"
                        ],
                        "city": "Medway",
                        "postalCode": "ME5 5TY"
                    }
                ]
            }
        },
        {
            "fullUrl": "urn:uuid:397b1ddd-b441-4e86-b64e-77dc6f83fc2b",
            "resource": {
                "resourceType": "Patient",
                "language": "en",
                "active": true,
                "name": [
                    {
                        "use": "official",
                        "family": "Joe",
                        "given": [
                            "Blogg"
                        ],
                        "prefix": [
                            "Mr"
                        ]
                    }
                ],
                "telecom": [
                    {
                        "system": "other",
                        "value": "tel:01634775667",
                        "use": "home"
                    },
                    {
                        "system": "other",
                        "value": "tel:01634451628",
                        "use": "home"
                    },
                    {
                        "system": "other",
                        "value": "mailto:Joe.Blogg@emailfree.co.uk",
                        "use": "home"
                    }
                ],
                "gender": "male",
                "birthDate": "1989-01-01",
                "address": [
                    {
                        "use": "home",
                        "line": [
                            "17, County Avenue",
                            "Woodtown"
                        ],
                        "city": "Medway",
                        "postalCode": "ME5 FS3"
                    }
                ],
                "generalPractitioner": [
                    {
                        "reference": "urn:uuid:216001e1-f2a9-484d-9d3a-fbe837b44329"
                    }
                ]
            }
        },
        {
            "fullUrl": "urn:uuid:216001e1-f2a9-484d-9d3a-fbe837b44329",
            "resource": {
                "resourceType": "Organization",
                "type": [
                    {
                        "text": "GP Practice"
                    }
                ],
                "name": "Medway Medical Practice",
                "telecom": [
                    {
                        "system": "other",
                        "value": "tel:01634111222",
                        "use": "work"
                    }
                ],
                "address": [
                    {
                        "use": "work",
                        "line": [
                            "Springer Street"
                        ],
                        "city": "Medway",
                        "postalCode": "ME5 5TY"
                    }
                ]
            }
        },
        {
            "fullUrl": "urn:uuid:acaf524e-ff2a-447b-8e57-32174679a551",
            "resource": {
                "resourceType": "HealthcareService",
                "active": true,
                "providedBy": {
                    "reference": "urn:uuid:07ca24f5-f71a-4ba8-b77d-571600a07b13"
                },
                "location": [
                    {
                        "reference": "urn:uuid:c2d8a871-9278-462e-ba0d-779e2031cf48"
                    }
                ],
                "name": "Thames Medical Practice",
                "telecom": [
                    {
                        "system": "other",
                        "value": "tel:0123476895",
                        "use": "work"
                    }
                ]
            }
        },
        {
            "fullUrl": "urn:uuid:c2d8a871-9278-462e-ba0d-779e2031cf48",
            "resource": {
                "resourceType": "Location",
                "telecom": [
                    {
                        "system": "other",
                        "value": "tel:0123476895",
                        "use": "work"
                    }
                ],
                "address": {
                    "use": "work",
                    "line": [
                        "Thames Medical Practice",
                        "Hill Street Branch Surgery",
                        "Medway",
                        "Essex"
                    ],
                    "postalCode": "ME4 5TT"
                }
            }
        },
        {
            "fullUrl": "urn:uuid:07ca24f5-f71a-4ba8-b77d-571600a07b13",
            "resource": {
                "resourceType": "Organization",
                "name": "Thames Medical Practice"
            }
        },
        {
            "fullUrl": "urn:uuid:ffc382eb-9e71-4c65-996f-0e0c6f0fea11",
            "resource": {
                "resourceType": "HealthcareService",
                "active": true,
                "providedBy": {
                    "reference": "urn:uuid:69ddb5d5-3141-4674-a68e-2957fbcd0aab"
                },
                "location": [
                    {
                        "reference": "urn:uuid:5e7a04d4-5287-4971-8f82-b1ec45153008"
                    }
                ],
                "name": "Medway Kent Out of Hours Clinic"
            }
        },
        {
            "fullUrl": "urn:uuid:5e7a04d4-5287-4971-8f82-b1ec45153008",
            "resource": {
                "resourceType": "Location"
            }
        },
        {
            "fullUrl": "urn:uuid:69ddb5d5-3141-4674-a68e-2957fbcd0aab",
            "resource": {
                "resourceType": "Organization",
                "name": "Medway Kent Out of Hours Clinic"
            }
        },
        {
            "fullUrl": "urn:uuid:17e313ac-8417-4b20-a256-4423ab0f8918",
            "resource": {
                "resourceType": "ReferralRequest",
                "status": "active",
                "intent": "plan",
                "priority": "routine",
                "subject": {
                    "reference": "urn:uuid:397b1ddd-b441-4e86-b64e-77dc6f83fc2b"
                },
                "context": {
                    "reference": "urn:uuid:d7b9998e-9e14-469f-8418-779dd8bd3a10"
                },
                "occurrencePeriod": {
                    "start": "2020-09-18T15:46:13+02:00",
                    "end": "2020-09-18T16:46:13+02:00"
                },
                "authoredOn": "2020-09-18T15:46:13+02:00",
                "requester": {
                    "agent": {
                        "reference": "Device/1"
                    },
                    "onBehalfOf": {
                        "reference": "urn:uuid:0b0f7d3e-d4f0-46a0-92ac-ae82ad391464"
                    }
                },
                "recipient": [
                    {
                        "reference": "urn:uuid:acaf524e-ff2a-447b-8e57-32174679a551"
                    },
                    {
                        "reference": "urn:uuid:ffc382eb-9e71-4c65-996f-0e0c6f0fea11"
                    }
                ]
            }
        },
        {
            "fullUrl": "urn:uuid:a56b5cb5-97bb-4c7f-a15c-1b6de0986fa1",
            "resource": {
                "resourceType": "Appointment",
                "status": "booked",
                "reason": [
                    {
                        "text": "Patient convenience appointment"
                    }
                ],
                "description": "Appointment Reference",
                "start": "2017-06-01T16:00:00.000+02:00",
                "end": "2017-06-01T16:10:00.000+02:00",
                "minutesDuration": 10,
                "comment": "\n                                                        Date/Time: 01 June 2017 14:00\n                                                        Location: CENTRAL LONDON COMMUNITY HEALTHCARE NHS TRUST\n                                                        Psychiatric Community Care Service\n                                                    ",
                "incomingReferral": [
                    {
                        "reference": "urn:uuid:17e313ac-8417-4b20-a256-4423ab0f8918"
                    }
                ],
                "participant": [
                    {
                        "actor": {
                            "reference": "urn:uuid:397b1ddd-b441-4e86-b64e-77dc6f83fc2b"
                        },
                        "required": "required",
                        "status": "accepted"
                    },
                    {
                        "actor": {
                            "reference": "urn:uuid:8beb67e2-99fe-4f04-a8be-5ada1383b5f1"
                        },
                        "required": "required",
                        "status": "accepted"
                    }
                ]
            }
        },
        {
            "fullUrl": "urn:uuid:8beb67e2-99fe-4f04-a8be-5ada1383b5f1",
            "resource": {
                "resourceType": "Location",
                "name": "CENTRAL LONDON COMMUNITY HEALTHCARE NHS TRUST",
                "description": "Psychiatric Community Care Services",
                "address": {
                    "use": "work",
                    "line": [
                        "Great George Street"
                    ],
                    "city": "Leeds",
                    "postalCode": "LE13EX"
                }
            }
        },
        {
            "fullUrl": "urn:uuid:6bff3569-2257-46bc-b600-27c46b583fac",
            "resource": {
                "resourceType": "EpisodeOfCare",
                "status": "active",
                "type": [
                    {
                        "text": "NHS111Encounter"
                    }
                ],
                "patient": {
                    "reference": "urn:uuid:397b1ddd-b441-4e86-b64e-77dc6f83fc2b"
                },
                "managingOrganization": {
                    "reference": "urn:uuid:26ed6ebd-f737-4c06-ab5b-f904a4b22c07"
                },
                "period": {
                    "start": "2011-05-19T21:45:00+02:00",
                    "end": "2011-05-19T22:15:00+02:00"
                },
                "careManager": {
                    "reference": "urn:uuid:b95fbd7f-898c-4f39-9ea3-e567d727700a"
                }
            }
        },
        {
            "fullUrl": "urn:uuid:b95fbd7f-898c-4f39-9ea3-e567d727700a",
            "resource": {
                "resourceType": "Practitioner",
                "active": true,
                "name": [
                    {
                        "use": "official",
                        "family": "Cornwell",
                        "given": [
                            "Dave"
                        ]
                    }
                ]
            }
        },
        {
            "fullUrl": "urn:uuid:26ed6ebd-f737-4c06-ab5b-f904a4b22c07",
            "resource": {
                "resourceType": "Organization",
                "name": "Medway South Out of Hours Centre"
            }
        },
        {
            "fullUrl": "urn:uuid:7bd4cdba-d00f-4637-9549-17ec98352bcf",
            "resource": {
                "resourceType": "Composition",
                "identifier": {
                    "use": "usual",
                    "value": "411910CF-1A76-4330-98FE-C345DDEE5553"
                },
                "status": "final",
                "type": {
                    "coding": [
                        {
                            "system": "http://snomed.info/sct",
                            "code": "371531000",
                            "display": "Report of clinical encounter (record artifact)"
                        }
                    ]
                },
                "subject": {
                    "reference": "urn:uuid:397b1ddd-b441-4e86-b64e-77dc6f83fc2b"
                },
                "encounter": {
                    "reference": "urn:uuid:d7b9998e-9e14-469f-8418-779dd8bd3a10"
                },
                "date": "2020-09-18T15:46:13+02:00",
                "author": [
                    {
                        "reference": "urn:uuid:bb2f6301-e31b-4d20-86b1-00a353a56698"
                    }
                ],
                "title": "111 Report",
                "confidentiality": "V",
                "custodian": {
                    "reference": "urn:uuid:26ed6ebd-f737-4c06-ab5b-f904a4b22c07"
                },
                "relatesTo": [
                    {
                        "code": "replaces",
                        "targetIdentifier": {
                            "use": "usual",
                            "value": "A709A442-3CF4-476E-8377-376500E82AAA"
                        }
                    }
                ],
                "section": [
                    {
                        "title": "Permission To View",
                        "text": {
                            "status": "generated",
                            "div": "<div xmlns=\"http://www.w3.org/1999/xhtml\">\n                                                    &lt;table xmlns=&quot;urn:hl7-org:v3&quot; xmlns:npfitlc=&quot;NPFIT:HL7:Localisation&quot;&gt;\n                                                        &lt;tbody&gt;\n                                                            &lt;tr&gt;\n                                                                &lt;th&gt;Permission to view outcome&lt;/th&gt;\n                                                                &lt;td&gt;Permission to view obtained&lt;/td&gt;\n                                                            &lt;/tr&gt;\n                                                            &lt;tr&gt;\n                                                                &lt;th&gt;Date obtained&lt;/th&gt;\n                                                                &lt;td&gt;19-May-2011, 20:00&lt;/td&gt;\n                                                            &lt;/tr&gt;\n                                                            &lt;tr&gt;\n                                                                &lt;th&gt;Date expires&lt;/th&gt;\n                                                                &lt;td&gt;26-May-2011, 20:00&lt;/td&gt;\n                                                            &lt;/tr&gt;\n                                                        &lt;/tbody&gt;\n                                                    &lt;/table&gt;\n                                                </div>"
                        }
                    },
                    {
                        "title": "Patient?s Reported Condition",
                        "text": {
                            "status": "generated",
                            "div": "<div xmlns=\"http://www.w3.org/1999/xhtml\">\n                                                    &lt;content xmlns=&quot;urn:hl7-org:v3&quot; xmlns:npfitlc=&quot;NPFIT:HL7:Localisation&quot;&gt;Patient has an insect bite.&lt;/content&gt;\n                                                </div>"
                        }
                    },
                    {
                        "title": "Case Summary",
                        "text": {
                            "status": "generated",
                            "div": "<div xmlns=\"http://www.w3.org/1999/xhtml\">&lt;xml-fragment xmlns:npfitlc=&quot;NPFIT:HL7:Localisation&quot;&gt;\n                                                    &lt;urn:content styleCode=&quot;bold&quot; xmlns:urn=&quot;urn:hl7-org:v3&quot;&gt;Disposition:&lt;/urn:content&gt;\n                                                    &lt;urn:br xmlns:urn=&quot;urn:hl7-org:v3&quot;/&gt;\n                                                    &lt;urn:content xmlns:urn=&quot;urn:hl7-org:v3&quot;&gt;Go to the nearest Emergency Department within 4 hours.\n                                                    &lt;/urn:content&gt;\n                                                    &lt;urn:br xmlns:urn=&quot;urn:hl7-org:v3&quot;/&gt;\n                                                    &lt;urn:content styleCode=&quot;bold&quot; xmlns:urn=&quot;urn:hl7-org:v3&quot;&gt;Selected care service:&lt;/urn:content&gt;\n                                                    &lt;urn:br xmlns:urn=&quot;urn:hl7-org:v3&quot;/&gt;\n                                                    &lt;urn:content xmlns:urn=&quot;urn:hl7-org:v3&quot;&gt;Dx009&lt;/urn:content&gt;\n                                                    &lt;urn:br xmlns:urn=&quot;urn:hl7-org:v3&quot;/&gt;\n                                                    &lt;urn:content styleCode=&quot;bold&quot; xmlns:urn=&quot;urn:hl7-org:v3&quot;&gt;Pathways Assessment:&lt;/urn:content&gt;\n                                                    &lt;urn:br xmlns:urn=&quot;urn:hl7-org:v3&quot;/&gt;\n                                                    &lt;urn:content xmlns:urn=&quot;urn:hl7-org:v3&quot;&gt;An injury or other health problem was described.\n                                                        &lt;urn:br/&gt;The individual was described as breathing and conscious.\n                                                        &lt;urn:br/&gt;Loss of at least a mugful of blood in the last 30 minutes\n                                                        was not described.\n                                                        &lt;urn:br/&gt;An illness or other health problem was described. - Insect\n                                                        Bite\n                                                        &lt;urn:br/&gt;Fighting for breath was not described.\n                                                        &lt;urn:br/&gt;A heart attack, chest/upper back pain, recent probable\n                                                        stroke, recent fit/seizure or suicide attempt was not described\n                                                        as the main call reason.\n                                                        &lt;urn:br/&gt;New confusion, a diabetic hypo, a probable allergic\n                                                        reaction or successful resuscitation was not described as being\n                                                        the main call reason.\n                                                        &lt;urn:br/&gt;The individual was described as being warm to touch.\n                                                        &lt;urn:br/&gt;An insect or spider bite or sting was described. - Tick\n                                                        Bite\n                                                        &lt;urn:br/&gt;A sting/bite occurring within the last hour was not\n                                                        described.\n                                                        &lt;urn:br/&gt;10 or more stings were not described.\n                                                        &lt;urn:br/&gt;Nausea or vomiting since the sting was not described.\n                                                        &lt;urn:br/&gt;A sting involving the eyes or mouth was not described.\n                                                        &lt;urn:br/&gt;A fever was not described.\n                                                        &lt;urn:br/&gt;An insect still attached to the skin was described.\n                                                        &lt;urn:br/&gt;A tick bite was described.\n                                                        &lt;urn:br/&gt;\n                                                    &lt;/urn:content&gt;\n                                                    &lt;urn:content styleCode=&quot;bold&quot; xmlns:urn=&quot;urn:hl7-org:v3&quot;&gt;Advice given:&lt;/urn:content&gt;\n                                                    &lt;urn:br xmlns:urn=&quot;urn:hl7-org:v3&quot;/&gt;\n                                                    &lt;urn:content xmlns:urn=&quot;urn:hl7-org:v3&quot;&gt;Remove any jewellery or tight clothing from the area.\n                                                        &lt;urn:br/&gt;Antihistamine medication and creams help reduce swelling\n                                                        and itching. They can be bought from pharmacies. Talk to the\n                                                        pharmacist for advice. Follow the instructions in the pack.\n                                                        &lt;urn:br/&gt;Unless advised not to, or they have already been given,\n                                                        paracetamol or ibuprofen can be used to relieve pain. Follow the\n                                                        instructions in the pack. If in doubt ask a pharmacist.\n                                                    &lt;/urn:content&gt;\n                                                &lt;/xml-fragment&gt;</div>"
                        }
                    },
                    {
                        "title": "Patient Special Notes",
                        "text": {
                            "status": "generated",
                            "div": "<div xmlns=\"http://www.w3.org/1999/xhtml\">\n                                                    &lt;content xmlns=&quot;urn:hl7-org:v3&quot; xmlns:npfitlc=&quot;NPFIT:HL7:Localisation&quot;&gt;Patient has history of violence towards health care\n                                                        professionals\n                                                    &lt;/content&gt;\n                                                </div>"
                        }
                    },
                    {
                        "title": "Appointment Reference",
                        "text": {
                            "status": "generated",
                            "div": "<div xmlns=\"http://www.w3.org/1999/xhtml\">\n                                                    &lt;content xmlns=&quot;urn:hl7-org:v3&quot; xmlns:npfitlc=&quot;NPFIT:HL7:Localisation&quot;&gt;\n                                                        Date/Time: 01 June 2017 14:00\n                                                        Location: CENTRAL LONDON COMMUNITY HEALTHCARE NHS TRUST\n                                                        Psychiatric Community Care Service\n                                                    &lt;/content&gt;\n                                                </div>"
                        }
                    },
                    {
                        "title": "CarePlan Advice",
                        "text": {
                            "status": "generated",
                            "div": "<div xmlns=\"http://www.w3.org/1999/xhtml\">&lt;xml-fragment xmlns:npfitlc=&quot;NPFIT:HL7:Localisation&quot;&gt;\n                                                    &lt;urn:content xmlns:urn=&quot;urn:hl7-org:v3&quot;&gt;\n                                                        SAMPLE: Irrelevant Data purely for testing Care Plan Advice\n                                                        Date/Time: 01 June 2017 14:00\n                                                        Location: CENTRAL LONDON COMMUNITY HEALTHCARE NHS TRUST\n                                                        Psychiatric Community Care Service\n                                                    &lt;/urn:content&gt;\n                                                    &lt;urn:content xmlns:urn=&quot;urn:hl7-org:v3&quot;&gt;\n                                                        Patient has history of violence towards health care\n                                                        professionals\n                                                    &lt;/urn:content&gt;\n                                                    &lt;urn:content xmlns:urn=&quot;urn:hl7-org:v3&quot;&gt;An injury or other health problem was described.\n                                                        &lt;urn:br/&gt;The individual was described as breathing and conscious.\n                                                        &lt;urn:br/&gt;Loss of at least a mugful of blood in the last 30 minutes\n                                                        was not described.\n                                                        &lt;urn:br/&gt;An illness or other health problem was described. - Insect\n                                                        Bite\n                                                        &lt;urn:br/&gt;Fighting for breath was not described.\n                                                        &lt;urn:br/&gt;A heart attack, chest/upper back pain, recent probable\n                                                        stroke, recent fit/seizure or suicide attempt was not described\n                                                        as the main call reason.\n                                                        &lt;urn:br/&gt;New confusion, a diabetic hypo, a probable allergic\n                                                        reaction or successful resuscitation was not described as being\n                                                        the main call reason.\n                                                        &lt;urn:br/&gt;The individual was described as being warm to touch.\n                                                        &lt;urn:br/&gt;An insect or spider bite or sting was described. - Tick\n                                                        Bite\n                                                        &lt;urn:br/&gt;A sting/bite occurring within the last hour was not\n                                                        described.\n                                                        &lt;urn:br/&gt;10 or more stings were not described.\n                                                        &lt;urn:br/&gt;Nausea or vomiting since the sting was not described.\n                                                        &lt;urn:br/&gt;A sting involving the eyes or mouth was not described.\n                                                        &lt;urn:br/&gt;A fever was not described.\n                                                        &lt;urn:br/&gt;An insect still attached to the skin was described.\n                                                        &lt;urn:br/&gt;A tick bite was described.\n                                                        &lt;urn:br/&gt;\n                                                    &lt;/urn:content&gt;\n                                                    &lt;urn:content styleCode=&quot;bold&quot; xmlns:urn=&quot;urn:hl7-org:v3&quot;&gt;Plan Summary:&lt;/urn:content&gt;\n                                                    &lt;urn:br xmlns:urn=&quot;urn:hl7-org:v3&quot;/&gt;\n                                                    &lt;urn:content xmlns:urn=&quot;urn:hl7-org:v3&quot;&gt;Remove any jewellery or tight clothing from the area.\n                                                        &lt;urn:br/&gt;Antihistamine medication and creams help reduce swelling\n                                                        and itching. They can be bought from pharmacies. Talk to the\n                                                        pharmacist for advice. Follow the instructions in the pack.\n                                                        &lt;urn:br/&gt;Unless advised not to, or they have already been given,\n                                                        paracetamol or ibuprofen can be used to relieve pain. Follow the\n                                                        instructions in the pack. If in doubt ask a pharmacist.\n                                                    &lt;/urn:content&gt;\n                                                &lt;/xml-fragment&gt;</div>"
                        }
                    },
                    {
                        "title": "CarePlan Advice III",
                        "text": {
                            "status": "generated",
                            "div": "<div xmlns=\"http://www.w3.org/1999/xhtml\">&lt;xml-fragment xmlns:npfitlc=&quot;NPFIT:HL7:Localisation&quot;&gt;\n                                                    &lt;urn:content xmlns:urn=&quot;urn:hl7-org:v3&quot;&gt;\n                                                        SAMPLE: Irrelevant Data purely for testing Care Plan Advice\n                                                        Date/Time: 01 June 2019 16:00\n                                                        Location: WEST LONDON COMMUNITY HEALTHCARE NHS TRUST\n                                                        Psychiatric Community Care Service\n                                                    &lt;/urn:content&gt;\n                                                    &lt;urn:content xmlns:urn=&quot;urn:hl7-org:v3&quot;&gt;\n                                                        Patient has history of violence towards health care\n                                                        professionals\n                                                    &lt;/urn:content&gt;\n                                                    &lt;urn:content xmlns:urn=&quot;urn:hl7-org:v3&quot;&gt;An injury or other health problem was described.\n                                                        &lt;urn:br/&gt;The individual was described as breathing and conscious.\n                                                        &lt;urn:br/&gt;Loss of at least a mugful of blood in the last 30 minutes\n                                                        was not described.\n                                                        &lt;urn:br/&gt;An illness or other health problem was described. - Insect\n                                                        Bite\n                                                        &lt;urn:br/&gt;Fighting for breath was not described.\n                                                        &lt;urn:br/&gt;A heart attack, chest/upper back pain, recent probable\n                                                        stroke, recent fit/seizure or suicide attempt was not described\n                                                        as the main call reason.\n                                                        &lt;urn:br/&gt;New confusion, a diabetic hypo, a probable allergic\n                                                        reaction or successful resuscitation was not described as being\n                                                        the main call reason.\n                                                        &lt;urn:br/&gt;The individual was described as being warm to touch.\n                                                        &lt;urn:br/&gt;An insect or spider bite or sting was described. - Tick\n                                                        Bite\n                                                    &lt;/urn:content&gt;\n                                                    &lt;urn:content styleCode=&quot;bold&quot; xmlns:urn=&quot;urn:hl7-org:v3&quot;&gt;Plan Summary:&lt;/urn:content&gt;\n                                                    &lt;urn:br xmlns:urn=&quot;urn:hl7-org:v3&quot;/&gt;\n                                                    &lt;urn:content xmlns:urn=&quot;urn:hl7-org:v3&quot;&gt;Remove any jewellery or tight clothing from the area.\n                                                        &lt;urn:br/&gt;Antihistamine medication and creams help reduce swelling\n                                                        and itching. They can be bought from pharmacies. Talk to the\n                                                        pharmacist for advice. Follow the instructions in the pack.\n                                                        &lt;urn:br/&gt;Unless advised not to, or they have already been given,\n                                                        paracetamol or ibuprofen can be used to relieve pain. Follow the\n                                                        instructions in the pack. If in doubt ask a pharmacist.\n                                                    &lt;/urn:content&gt;\n                                                &lt;/xml-fragment&gt;</div>"
                        }
                    }
                ]
            }
        },
        {
            "fullUrl": "urn:uuid:bb2f6301-e31b-4d20-86b1-00a353a56698",
            "resource": {
                "resourceType": "Practitioner",
                "active": true,
                "name": [
                    {
                        "use": "official",
                        "family": "Jones",
                        "given": [
                            "Mary"
                        ]
                    }
                ]
            }
        },
        {
            "fullUrl": "urn:uuid:5f8ffa44-2933-4ee6-b7f3-732117c50562",
            "resource": {
                "resourceType": "CarePlan",
                "text": {
                    "status": "generated",
                    "div": "<div xmlns=\"http://www.w3.org/1999/xhtml\">SAMPLE: Irrelevant Data purely for testing Care Plan Advice\n                                                        Date/Time: 01 June 2017 14:00\n                                                        Location: CENTRAL LONDON COMMUNITY HEALTHCARE NHS TRUST\n                                                        Psychiatric Community Care Service</div>"
                },
                "status": "completed",
                "intent": "plan",
                "title": "CarePlan Advice",
                "description": "\n                                                        SAMPLE: Irrelevant Data purely for testing Care Plan Advice\n                                                        Date/Time: 01 June 2017 14:00\n                                                        Location: CENTRAL LONDON COMMUNITY HEALTHCARE NHS TRUST\n                                                        Psychiatric Community Care Service\n                                                    ",
                "subject": {
                    "reference": "urn:uuid:397b1ddd-b441-4e86-b64e-77dc6f83fc2b"
                },
                "context": {
                    "reference": "urn:uuid:d7b9998e-9e14-469f-8418-779dd8bd3a10"
                },
                "period": {
                    "start": "2011-05-19T22:00:00+02:00"
                }
            }
        },
        {
            "fullUrl": "urn:uuid:5119772d-164b-43dd-89a8-33d17e8ae865",
            "resource": {
                "resourceType": "CarePlan",
                "text": {
                    "status": "generated",
                    "div": "<div xmlns=\"http://www.w3.org/1999/xhtml\">SAMPLE: Irrelevant Data purely for testing Care Plan Advice\n                                                        Date/Time: 01 June 2019 16:00\n                                                        Location: WEST LONDON COMMUNITY HEALTHCARE NHS TRUST\n                                                        Psychiatric Community Care Service</div>"
                },
                "status": "completed",
                "intent": "plan",
                "title": "CarePlan Advice III",
                "description": "\n                                                        SAMPLE: Irrelevant Data purely for testing Care Plan Advice\n                                                        Date/Time: 01 June 2019 16:00\n                                                        Location: WEST LONDON COMMUNITY HEALTHCARE NHS TRUST\n                                                        Psychiatric Community Care Service\n                                                    ",
                "subject": {
                    "reference": "urn:uuid:397b1ddd-b441-4e86-b64e-77dc6f83fc2b"
                },
                "context": {
                    "reference": "urn:uuid:d7b9998e-9e14-469f-8418-779dd8bd3a10"
                },
                "period": {
                    "start": "2011-05-19T22:00:00+02:00"
                }
            }
        },
        {
            "fullUrl": "urn:uuid:dc96aca0-d525-4b2a-8bcf-aea465b91092",
            "resource": {
                "resourceType": "Consent",
                "identifier": {
                    "use": "usual",
                    "value": "411910CF-1A76-4330-98FE-C345DDEE5553"
                },
                "status": "active",
                "patient": {
                    "reference": "urn:uuid:397b1ddd-b441-4e86-b64e-77dc6f83fc2b"
                },
                "period": {
                    "start": "2011-05-19T22:00:00+02:00"
                },
                "dateTime": "2020-09-18T15:46:13+02:00",
                "consentingParty": [
                    {
                        "reference": "urn:uuid:397b1ddd-b441-4e86-b64e-77dc6f83fc2b"
                    }
                ],
                "action": [
                    {
                        "coding": [
                            {
                                "system": "http://snomed.info/sct",
                                "code": "425691002",
                                "display": "Consent given for electronic record sharing"
                            }
                        ],
                        "text": "Consent given for electronic record sharing"
                    }
                ],
                "organization": [
                    {
                        "reference": "urn:uuid:0b0f7d3e-d4f0-46a0-92ac-ae82ad391464"
                    }
                ],
                "policyRule": "http://hl7.org/fhir/ConsentPolicy/opt-out",
                "dataPeriod": {
                    "start": "2011-05-19T22:00:00+02:00",
                    "end": "2011-05-26T22:00:00+02:00"
                },
                "data": [
                    {
                        "meaning": "related",
                        "reference": {
                            "reference": "urn:uuid:d7b9998e-9e14-469f-8418-779dd8bd3a10"
                        }
                    }
                ]
            }
        },
        {
            "fullUrl": "urn:uuid:56345763-36c9-4d33-8882-5c4ce643ad87",
            "resource": {
                "resourceType": "Condition",
                "clinicalStatus": "active",
                "verificationStatus": "unknown",
                "category": [
                    {
                        "text": "Example diagnosis text"
                    }
                ],
                "subject": {
                    "reference": "urn:uuid:397b1ddd-b441-4e86-b64e-77dc6f83fc2b"
                },
                "context": {
                    "reference": "urn:uuid:d7b9998e-9e14-469f-8418-779dd8bd3a10"
                },
                "assertedDate": "2017-06-01T16:00:00+02:00",
                "asserter": {
                    "reference": "urn:uuid:a0a85e57-ca08-4103-babe-4e28c2197dc1"
                }
            }
        },
        {
            "fullUrl": "urn:uuid:8542fdd5-d8bc-4059-a206-dff285cd4aae",
            "resource": {
                "resourceType": "List",
                "status": "current",
                "mode": "working",
                "title": "111 Report List",
                "code": {
                    "coding": [
                        {
                            "system": "http://snomed.info/sct",
                            "code": "225390008",
                            "display": "Triage"
                        }
                    ]
                },
                "subject": {
                    "reference": "urn:uuid:397b1ddd-b441-4e86-b64e-77dc6f83fc2b"
                },
                "encounter": {
                    "reference": "urn:uuid:d7b9998e-9e14-469f-8418-779dd8bd3a10"
                },
                "date": "2020-09-18T15:46:13+02:00",
                "source": {
                    "reference": "Device/1"
                },
                "orderedBy": {
                    "text": "event-date"
                },
                "entry": [
                    {
                        "item": {
                            "reference": "urn:uuid:23d3ebdb-21af-4725-a232-7c1c9db6f1af"
                        }
                    },
                    {
                        "item": {
                            "reference": "urn:uuid:07ca24f5-f71a-4ba8-b77d-571600a07b13"
                        }
                    },
                    {
                        "item": {
                            "reference": "urn:uuid:b95fbd7f-898c-4f39-9ea3-e567d727700a"
                        }
                    },
                    {
                        "item": {
                            "reference": "urn:uuid:56345763-36c9-4d33-8882-5c4ce643ad87"
                        }
                    },
                    {
                        "item": {
                            "reference": "urn:uuid:8e5c1429-7484-4497-97d8-29235c3662e2"
                        }
                    },
                    {
                        "item": {
                            "reference": "urn:uuid:17e313ac-8417-4b20-a256-4423ab0f8918"
                        }
                    },
                    {
                        "item": {
                            "reference": "urn:uuid:0b0f7d3e-d4f0-46a0-92ac-ae82ad391464"
                        }
                    },
                    {
                        "item": {
                            "reference": "urn:uuid:69ddb5d5-3141-4674-a68e-2957fbcd0aab"
                        }
                    },
                    {
                        "item": {
                            "reference": "urn:uuid:bb2f6301-e31b-4d20-86b1-00a353a56698"
                        }
                    },
                    {
                        "item": {
                            "reference": "urn:uuid:2cd0ac72-7fc5-4128-8e4d-b975696e0ad6"
                        }
                    },
                    {
                        "item": {
                            "reference": "urn:uuid:26ed6ebd-f737-4c06-ab5b-f904a4b22c07"
                        }
                    },
                    {
                        "item": {
                            "reference": "urn:uuid:216001e1-f2a9-484d-9d3a-fbe837b44329"
                        }
                    },
                    {
                        "item": {
                            "reference": "urn:uuid:a0a85e57-ca08-4103-babe-4e28c2197dc1"
                        }
                    }
                ]
            }
        }
    ]
}