{
    "resourceType": "Bundle",
    "type": "message",
    "entry": [
        {
            "fullUrl": "urn:uuid:6f5c4a3e-dd9f-449e-b4a5-d603c22f0f0b",
            "resource": {
                "resourceType": "MessageHeader",
                "event": {
                    "system": "https://fhir.nhs.uk/STU3/CodeSystem/ITK-MessageEvent-2",
                    "code": "ITK007C",
                    "display": "ITK GP Connect Send Document"
                },
                "destination": [
                    {
                        "endpoint": "urn:nhs-uk:addressing:ods:EM396"
                    }
                ],
                "timestamp": "2020-11-23T09:11:14.086+00:00",
                "source": {
                    "name": "NHS 111 Adaptor",
                    "endpoint": "http://localhost:8080/report"
                },
                "reason": {
                    "coding": [
                        {
                            "system": "urn:nhs-itk:ns:201005:interaction",
                            "code": "urn:nhs-itk:interaction:primaryEmergencyDepartmentRecipientNHS111CDADocument-v2-0"
                        }
                    ]
                }
            }
        },
        {
            "fullUrl": "urn:uuid:d5e1facb-b49f-419c-a64b-bf1081baca72",
            "resource": {
                "resourceType": "Encounter",
                "status": "finished",
                "subject": {
                    "reference": "urn:uuid:2acad963-34a4-41d6-a147-4802c53b4c3c"
                },
                "participant": [
                    {
                        "type": [
                            {
                                "text": "REFT"
                            }
                        ],
                        "individual": {
                            "reference": "urn:uuid:65c8fd32-3ea2-4b51-bb35-878e04eacca4"
                        }
                    },
                    {
                        "type": [
                            {
                                "text": "CALLBCK"
                            }
                        ],
                        "individual": {
                            "reference": "urn:uuid:903e9aa9-8526-4f4d-a1a8-a81162795280"
                        }
                    },
                    {
                        "individual": {
                            "reference": "urn:uuid:923ec583-eca7-4ad5-9271-a0ed6d6602cf"
                        }
                    },
                    {
                        "individual": {
                            "reference": "urn:uuid:cafab7a1-a05e-4c8a-8dc3-c492c5d92cdd"
                        }
                    },
                    {
                        "type": [
                            {
                                "text": "INF"
                            }
                        ],
                        "individual": {
                            "reference": "urn:uuid:996e49f6-1e04-44bd-a78d-ca170694a54c"
                        }
                    }
                ],
                "appointment": {
                    "reference": "urn:uuid:16e5f38c-bb82-4a1c-99e3-7e45bb30d009"
                },
                "period": {
                    "start": "2017-01-01T20:00:00+00:00"
                },
                "location": [
                    {
                        "location": {
                            "reference": "urn:uuid:bc133160-e4b4-4046-a248-f11eb9dc5620"
                        },
                        "status": "active"
                    }
                ],
                "serviceProvider": {
                    "reference": "urn:uuid:6d4a0119-ee88-4576-b1a4-2526bb51b010"
                }
            }
        },
        {
            "fullUrl": "urn:uuid:6d4a0119-ee88-4576-b1a4-2526bb51b010",
            "resource": {
                "resourceType": "Organization",
                "active": true,
                "type": [
                    {
                        "text": "CST"
                    }
                ],
                "name": "Medway NHS Foundation Trust"
            }
        },
        {
            "fullUrl": "urn:uuid:65c8fd32-3ea2-4b51-bb35-878e04eacca4",
            "resource": {
                "resourceType": "Practitioner",
                "active": true,
                "telecom": [
                    {
                        "system": "phone",
                        "value": "tel:0123456789",
                        "use": "temp"
                    }
                ],
                "address": [
                    {
                        "line": [
                            "Church Street Walk in Centre",
                            "4 Church Street",
                            "Medway"
                        ],
                        "postalCode": "ME8 7TT"
                    }
                ]
            }
        },
        {
            "fullUrl": "urn:uuid:903e9aa9-8526-4f4d-a1a8-a81162795280",
            "resource": {
                "resourceType": "Practitioner",
                "active": true,
                "name": [
                    {
                        "text": "Call Centre Manager"
                    }
                ],
                "telecom": [
                    {
                        "system": "phone",
                        "value": "tel:08001111111"
                    }
                ]
            }
        },
        {
            "fullUrl": "urn:uuid:923ec583-eca7-4ad5-9271-a0ed6d6602cf",
            "resource": {
                "resourceType": "Practitioner",
                "active": true,
                "name": [
                    {
                        "use": "official",
                        "family": "Jones",
                        "given": [
                            "Mary"
                        ]
                    }
                ]
            }
        },
        {
            "fullUrl": "urn:uuid:cafab7a1-a05e-4c8a-8dc3-c492c5d92cdd",
            "resource": {
                "resourceType": "Practitioner",
                "active": true,
                "name": [
                    {
                        "use": "official",
                        "family": "Cornwell",
                        "given": [
                            "Dave"
                        ]
                    }
                ]
            }
        },
        {
            "fullUrl": "urn:uuid:996e49f6-1e04-44bd-a78d-ca170694a54c",
            "resource": {
                "resourceType": "RelatedPerson",
                "active": true,
                "patient": {
                    "reference": "urn:uuid:2acad963-34a4-41d6-a147-4802c53b4c3c"
                },
                "name": [
                    {
                        "use": "official",
                        "family": "Bloggs",
                        "given": [
                            "Helga"
                        ]
                    }
                ],
                "telecom": [
                    {
                        "system": "phone",
                        "value": "tel:07886554123",
                        "use": "mobile"
                    },
                    {
                        "system": "phone",
                        "value": "tel:01783678321"
                    }
                ],
                "gender": "unknown",
                "address": [
                    {
                        "use": "home",
                        "line": [
                            "43 Summers Avenue",
                            "Somerset Street"
                        ],
                        "city": "Medway",
                        "postalCode": "ME5 7TY"
                    }
                ]
            }
        },
        {
            "fullUrl": "urn:uuid:bc133160-e4b4-4046-a248-f11eb9dc5620",
            "resource": {
                "resourceType": "Location",
                "managingOrganization": {
                    "reference": "urn:uuid:6ea6a04c-8b66-4aee-aa2d-53e107110f04"
                }
            }
        },
        {
            "fullUrl": "urn:uuid:6ea6a04c-8b66-4aee-aa2d-53e107110f04",
            "resource": {
                "resourceType": "Organization",
                "identifier": [
                    {
                        "value": "V396F"
                    }
                ],
                "type": [
                    {
                        "text": "GP Practice"
                    }
                ],
                "name": "Medway Medical Practice",
                "telecom": [
                    {
                        "system": "phone",
                        "value": "tel:01634111222",
                        "use": "work"
                    }
                ],
                "address": [
                    {
                        "use": "work",
                        "line": [
                            "Springer Street"
                        ],
                        "city": "Medway",
                        "postalCode": "ME5 5TY"
                    }
                ]
            }
        },
        {
            "fullUrl": "urn:uuid:2acad963-34a4-41d6-a147-4802c53b4c3c",
            "resource": {
                "resourceType": "Patient",
                "language": "en",
                "identifier": [
                    {
                        "extension": [
                            {
                                "url": "https://fhir.hl7.org.uk/STU3/StructureDefinition/Extension-CareConnect-NHSNumberVerificationStatus-1",
                                "valueCodeableConcept": {
                                    "coding": [
                                        {
                                            "system": "https://fhir.hl7.org.uk/STU3/StructureDefinition/Extension-CareConnect-NHSNumberVerificationStatus-1",
                                            "code": "02"
                                        }
                                    ]
                                }
                            }
                        ],
                        "system": "https://fhir.nhs.uk/Id/nhs-number",
                        "value": "993254128"
                    }
                ],
                "active": true,
                "name": [
                    {
                        "use": "official",
                        "family": "Joe",
                        "given": [
                            "Blogg"
                        ],
                        "prefix": [
                            "Mr"
                        ]
                    }
                ],
                "telecom": [
                    {
                        "system": "phone",
                        "value": "tel:01634775667",
                        "use": "home"
                    },
                    {
                        "system": "phone",
                        "value": "tel:01634451628",
                        "use": "home"
                    },
                    {
                        "system": "email",
                        "value": "mailto:Joe.Blogg@emailfree.co.uk",
                        "use": "home"
                    }
                ],
                "gender": "male",
                "birthDate": "1989-01-01",
                "address": [
                    {
                        "use": "home",
                        "line": [
                            "17, County Avenue",
                            "Woodtown"
                        ],
                        "city": "Medway",
                        "postalCode": "ME5 FS3"
                    }
                ],
                "generalPractitioner": [
                    {
                        "reference": "urn:uuid:d0edde54-3ba5-4e38-bf0f-6f0fddc604d3"
                    }
                ]
            }
        },
        {
            "fullUrl": "urn:uuid:d0edde54-3ba5-4e38-bf0f-6f0fddc604d3",
            "resource": {
                "resourceType": "Organization",
                "identifier": [
                    {
                        "value": "V396F"
                    }
                ],
                "type": [
                    {
                        "text": "GP Practice"
                    }
                ],
                "name": "Medway Medical Practice",
                "telecom": [
                    {
                        "system": "phone",
                        "value": "tel:01634111222",
                        "use": "work"
                    }
                ],
                "address": [
                    {
                        "use": "work",
                        "line": [
                            "Springer Street"
                        ],
                        "city": "Medway",
                        "postalCode": "ME5 5TY"
                    }
                ]
            }
        },
        {
            "fullUrl": "urn:uuid:77df8ab9-82da-41ad-9a28-63135dd688c6",
            "resource": {
                "resourceType": "HealthcareService",
                "active": true,
                "providedBy": {
                    "reference": "urn:uuid:5e7d82dd-1c10-4e3f-8c83-eaf84c60398c"
                },
                "location": [
                    {
                        "reference": "urn:uuid:fb1e8bd8-e5c5-4dc8-b5d1-b89e22d57d19"
                    }
                ],
                "name": "Thames Medical Practice",
                "telecom": [
                    {
                        "system": "phone",
                        "value": "tel:0123476895",
                        "use": "work"
                    }
                ]
            }
        },
        {
            "fullUrl": "urn:uuid:fb1e8bd8-e5c5-4dc8-b5d1-b89e22d57d19",
            "resource": {
                "resourceType": "Location",
                "telecom": [
                    {
                        "system": "phone",
                        "value": "tel:0123476895",
                        "use": "work"
                    }
                ],
                "address": {
                    "use": "work",
                    "line": [
                        "Thames Medical Practice",
                        "Hill Street Branch Surgery",
                        "Medway",
                        "Essex"
                    ],
                    "postalCode": "ME4 5TT"
                },
                "managingOrganization": {
                    "reference": "urn:uuid:65e6096e-0872-4019-878e-64c6a0c7204d"
                }
            }
        },
        {
            "fullUrl": "urn:uuid:5e7d82dd-1c10-4e3f-8c83-eaf84c60398c",
            "resource": {
                "resourceType": "Organization",
                "identifier": [
                    {
                        "value": "PRA123"
                    }
                ],
                "name": "Thames Medical Practice"
            }
        },
        {
            "fullUrl": "urn:uuid:21f9ea92-78af-4466-ad72-02467d4c1f44",
            "resource": {
                "resourceType": "HealthcareService",
                "active": true,
                "providedBy": {
                    "reference": "urn:uuid:6d3e6798-9f14-4ec3-9c77-916c0690b062"
                },
                "location": [
                    {
                        "reference": "urn:uuid:e4a3c3af-6481-474c-a47e-56075b7a50d9"
                    }
                ],
                "name": "Medway Kent Out of Hours Clinic"
            }
        },
        {
            "fullUrl": "urn:uuid:e4a3c3af-6481-474c-a47e-56075b7a50d9",
            "resource": {
                "resourceType": "Location",
                "managingOrganization": {
                    "reference": "urn:uuid:c5bfd6c5-0e28-4bf7-8751-366f98549181"
                }
            }
        },
        {
            "fullUrl": "urn:uuid:6d3e6798-9f14-4ec3-9c77-916c0690b062",
            "resource": {
                "resourceType": "Organization",
                "identifier": [
                    {
                        "value": "EM396"
                    }
                ],
                "name": "Medway Kent Out of Hours Clinic"
            }
        },
        {
            "fullUrl": "urn:uuid:5b828cda-fbd4-4084-870b-aaf483108231",
            "resource": {
                "resourceType": "ReferralRequest",
                "status": "active",
                "intent": "plan",
                "priority": "routine",
                "subject": {
                    "reference": "urn:uuid:2acad963-34a4-41d6-a147-4802c53b4c3c"
                },
                "context": {
                    "reference": "urn:uuid:d5e1facb-b49f-419c-a64b-bf1081baca72"
                },
                "occurrencePeriod": {
                    "start": "2020-11-23T09:11:14+00:00",
                    "end": "2020-11-23T10:11:14+00:00"
                },
                "authoredOn": "2020-11-23T09:11:14+00:00",
                "requester": {
                    "agent": {
                        "reference": "Device/1"
                    },
                    "onBehalfOf": {
                        "reference": "urn:uuid:6d4a0119-ee88-4576-b1a4-2526bb51b010"
                    }
                },
                "recipient": [
                    {
                        "reference": "urn:uuid:77df8ab9-82da-41ad-9a28-63135dd688c6"
                    },
                    {
                        "reference": "urn:uuid:21f9ea92-78af-4466-ad72-02467d4c1f44"
                    }
                ],
                "reasonReference": [
                    {
                        "reference": "urn:uuid:b8f7d385-c5bc-4b85-9b96-303a198bf88b"
                    }
                ],
                "supportingInfo": [
                    {
                        "reference": "urn:uuid:65be1dc0-5fb6-4e5e-9e62-01bba2643aae"
                    }
                ]
            }
        },
        {
            "fullUrl": "urn:uuid:65be1dc0-5fb6-4e5e-9e62-01bba2643aae",
            "resource": {
                "resourceType": "ProcedureRequest",
                "status": "active",
                "intent": "plan",
                "priority": "routine",
                "doNotPerform": false,
                "code": {
                    "coding": [
                        {
                            "system": "2.16.840.1.113883.2.1.3.2.4.17.325",
                            "code": "Dx001",
                            "display": "Passed onto clinical hub"
                        }
                    ]
                },
                "subject": {
                    "reference": "urn:uuid:2acad963-34a4-41d6-a147-4802c53b4c3c"
                },
                "occurrencePeriod": {
                    "start": "2020-11-23T09:11:14+00:00",
                    "end": "2020-11-23T10:11:14+00:00"
                },
                "reasonReference": [
                    {
                        "reference": "urn:uuid:b8f7d385-c5bc-4b85-9b96-303a198bf88b"
                    }
                ]
            }
        },
        {
            "fullUrl": "urn:uuid:ca792b3e-697b-4311-a4ac-aa28ad9f0c6f",
            "resource": {
                "resourceType": "Composition",
                "identifier": {
                    "use": "usual",
                    "value": "411910CF-1A76-4330-98FE-C345DDEE5553"
                },
                "status": "final",
                "type": {
                    "coding": [
                        {
                            "system": "http://snomed.info/sct",
                            "code": "371531000",
                            "display": "Report of clinical encounter (record artifact)"
                        }
                    ]
                },
                "subject": {
                    "reference": "urn:uuid:2acad963-34a4-41d6-a147-4802c53b4c3c"
                },
                "encounter": {
                    "reference": "urn:uuid:d5e1facb-b49f-419c-a64b-bf1081baca72"
                },
                "date": "2020-11-23T09:11:14+00:00",
                "author": [
                    {
                        "reference": "urn:uuid:923ec583-eca7-4ad5-9271-a0ed6d6602cf"
                    }
                ],
                "title": "111 Report",
                "confidentiality": "V",
                "section": [
                    {
                        "title": "Permission to View",
                        "text": {
                            "status": "generated",
                            "div": "<div xmlns=\"http://www.w3.org/1999/xhtml\">\n                                                    &lt;table xmlns=&quot;urn:hl7-org:v3&quot; xmlns:npfitlc=&quot;NPFIT:HL7:Localisation&quot;&gt;\n                                                        &lt;tbody&gt;\n                                                            &lt;tr&gt;\n                                                                &lt;th&gt;Permission to view outcome&lt;/th&gt;\n                                                                &lt;td&gt;Permission to view obtained&lt;/td&gt;\n                                                            &lt;/tr&gt;\n                                                            &lt;tr&gt;\n                                                                &lt;th&gt;Date obtained&lt;/th&gt;\n                                                                &lt;td&gt;01-Jan-2017, 20:00&lt;/td&gt;\n                                                            &lt;/tr&gt;\n                                                            &lt;tr&gt;\n                                                                &lt;th&gt;Date expires&lt;/th&gt;\n                                                                &lt;td&gt;15-Jan-2017, 20:00&lt;/td&gt;\n                                                            &lt;/tr&gt;\n                                                        &lt;/tbody&gt;\n                                                    &lt;/table&gt;\n                                                </div>"
                        }
                    },
                    {
                        "title": "Primary Reason for Call",
                        "text": {
                            "status": "generated",
                            "div": "<div xmlns=\"http://www.w3.org/1999/xhtml\">\n                                                    &lt;content xmlns=&quot;urn:hl7-org:v3&quot; xmlns:npfitlc=&quot;NPFIT:HL7:Localisation&quot;&gt;Patient feels dizzy.&lt;/content&gt;\n                                                </div>"
                        }
                    },
                    {
                        "title": "SUBSUB2",
                        "text": {
                            "status": "generated",
                            "div": "<div xmlns=\"http://www.w3.org/1999/xhtml\">\n                                                            &lt;content xmlns=&quot;urn:hl7-org:v3&quot; xmlns:npfitlc=&quot;NPFIT:HL7:Localisation&quot;&gt;SUBSUB2&lt;/content&gt;\n                                                        </div>"
                        }
                    },
                    {
                        "title": "SUBSUB3",
                        "text": {
                            "status": "generated",
                            "div": "<div xmlns=\"http://www.w3.org/1999/xhtml\">\n                                                                    &lt;content xmlns=&quot;urn:hl7-org:v3&quot; xmlns:npfitlc=&quot;NPFIT:HL7:Localisation&quot;&gt;SUBSUB3&lt;/content&gt;\n                                                                </div>"
                        }
                    },
                    {
                        "title": "Clinical Summary",
                        "text": {
                            "status": "generated",
                            "div": "<div xmlns=\"http://www.w3.org/1999/xhtml\">\n                                                    &lt;content xmlns=&quot;urn:hl7-org:v3&quot; xmlns:npfitlc=&quot;NPFIT:HL7:Localisation&quot;&gt;\n                                                        Patient fels nausea and dizzy after waking up. Lasted 30\n                                                        minutes.\n                                                    &lt;/content&gt;\n                                                </div>"
                        }
                    },
                    {
                        "title": "Additional Patient Notes",
                        "text": {
                            "status": "generated",
                            "div": "<div xmlns=\"http://www.w3.org/1999/xhtml\">&lt;xml-fragment xmlns:npfitlc=&quot;NPFIT:HL7:Localisation&quot;&gt;\n                                                    Additional Patient Notes\n                                                    &lt;urn:br xmlns:urn=&quot;urn:hl7-org:v3&quot;/&gt;\n                                                    Additional Patient Notes abc 01-Feb-2017, 12:00\n                                                    &lt;urn:br xmlns:urn=&quot;urn:hl7-org:v3&quot;/&gt;\n                                                &lt;/xml-fragment&gt;</div>"
                        }
                    },
                    {
                        "text": {
                            "status": "generated",
                            "div": "<div xmlns=\"http://www.w3.org/1999/xhtml\">&lt;xml-fragment xmlns:npfitlc=&quot;NPFIT:HL7:Localisation&quot;&gt;These are more notes, nested under the top one.&lt;/xml-fragment&gt;</div>"
                        }
                    },
                    {
                        "title": "Disposition Details",
                        "text": {
                            "status": "generated",
                            "div": "<div xmlns=\"http://www.w3.org/1999/xhtml\">\n                                                    &lt;content xmlns=&quot;urn:hl7-org:v3&quot; xmlns:npfitlc=&quot;NPFIT:HL7:Localisation&quot;&gt;Lie down.&lt;/content&gt;\n                                                </div>"
                        }
                    },
                    {
                        "title": "Information and advice given",
                        "text": {
                            "status": "generated",
                            "div": "<div xmlns=\"http://www.w3.org/1999/xhtml\">\n                                                    &lt;content xmlns=&quot;urn:hl7-org:v3&quot; xmlns:npfitlc=&quot;NPFIT:HL7:Localisation&quot;&gt;Do not perform any strenuous activities.&lt;/content&gt;\n                                                </div>"
                        }
                    },
                    {
                        "title": "Recorded Allergies",
                        "text": {
                            "status": "generated",
                            "div": "<div xmlns=\"http://www.w3.org/1999/xhtml\">\n                                                    &lt;content xmlns=&quot;urn:hl7-org:v3&quot; xmlns:npfitlc=&quot;NPFIT:HL7:Localisation&quot;&gt;No known allergies or adverse reaction.&lt;/content&gt;\n                                                </div>"
                        }
                    },
                    {
                        "title": "Triage Report",
                        "text": {
                            "status": "generated",
                            "div": "<div xmlns=\"http://www.w3.org/1999/xhtml\">\n                                                    &lt;content xmlns=&quot;urn:hl7-org:v3&quot; xmlns:npfitlc=&quot;NPFIT:HL7:Localisation&quot;&gt;An injury or other health problem was described.\n                                                        &lt;br/&gt;The individual was described as breathing and conscious.\n                                                        &lt;br/&gt;Loss of at least a mugful of blood in the last 30 minutes\n                                                        was not described.\n                                                        &lt;br/&gt;An illness or other health problem was described. -\n                                                        Dizziness\n                                                        &lt;br/&gt;Fighting for breath was not described.\n                                                        &lt;br/&gt;A heart attack, chest/upper back pain, recent probable\n                                                        stroke, recent fit/seizure or suicide attempt was not described\n                                                        as the main call reason.\n                                                        &lt;br/&gt;Dizziness and nausea was described.\n                                                        &lt;br/&gt;\n                                                    &lt;/content&gt;\n                                                </div>"
                        }
                    },
                    {
                        "title": "Prescribed Items",
                        "text": {
                            "status": "generated",
                            "div": "<div xmlns=\"http://www.w3.org/1999/xhtml\">\n                                                    &lt;content xmlns=&quot;urn:hl7-org:v3&quot; xmlns:npfitlc=&quot;NPFIT:HL7:Localisation&quot;&gt;\n                                                        Medications\n                                                    &lt;/content&gt;\n                                                </div>"
                        }
                    },
                    {
                        "title": "Appointment Reference",
                        "text": {
                            "status": "generated",
                            "div": "<div xmlns=\"http://www.w3.org/1999/xhtml\">\n                                                    &lt;content xmlns=&quot;urn:hl7-org:v3&quot; xmlns:npfitlc=&quot;NPFIT:HL7:Localisation&quot;&gt;\n                                                        Date/Time: 01 June 2017 14:00\n                                                        Location: CENTRAL LONDON COMMUNITY HEALTHCARE NHS TRUST\n                                                        Psychiatric Community Care Service\n                                                    &lt;/content&gt;\n                                                </div>"
                        }
                    },
                    {
                        "title": "CarePlan",
                        "entry": [
                            {
                                "reference": "urn:uuid:33740fa8-ea2e-4d46-82a4-aec0d9758fbf"
                            }
                        ]
                    },
                    {
                        "title": "ReferralRequest",
                        "entry": [
                            {
                                "reference": "urn:uuid:5b828cda-fbd4-4084-870b-aaf483108231"
                            }
                        ]
                    },
                    {
                        "title": "QuestionnaireResponse",
                        "entry": [
                            {
                                "reference": "urn:uuid:55580f71-382c-4985-8ea5-d16888ff3bff"
                            }
                        ]
                    },
                    {
                        "title": "QuestionnaireResponse",
                        "entry": [
                            {
                                "reference": "urn:uuid:926bfa37-b007-423b-b48a-7e7a7e98cb69"
                            }
                        ]
                    },
                    {
                        "title": "QuestionnaireResponse",
                        "entry": [
                            {
                                "reference": "urn:uuid:aa151ffb-5cf7-4854-80ee-980bd73ba09f"
                            }
                        ]
                    },
                    {
                        "title": "QuestionnaireResponse",
                        "entry": [
                            {
                                "reference": "urn:uuid:7da5c37c-4f73-42cb-bc0a-b6fc8c3973ec"
                            }
                        ]
                    },
                    {
                        "title": "QuestionnaireResponse",
                        "entry": [
                            {
                                "reference": "urn:uuid:346036b1-54fc-413a-ba4c-e83bcd0300df"
                            }
                        ]
                    },
                    {
                        "title": "QuestionnaireResponse",
                        "entry": [
                            {
                                "reference": "urn:uuid:26218052-526f-415c-a8b8-9a6f5d728b52"
                            }
                        ]
                    },
                    {
                        "title": "QuestionnaireResponse",
                        "entry": [
                            {
                                "reference": "urn:uuid:7ed816db-1dd5-4f8b-8b27-50d11c97f5c9"
                            }
                        ]
                    },
                    {
                        "title": "QuestionnaireResponse",
                        "entry": [
                            {
                                "reference": "urn:uuid:f3794058-9c8f-4d9f-8f50-ef03b2b070cd"
                            }
                        ]
                    },
                    {
                        "title": "QuestionnaireResponse",
                        "entry": [
                            {
                                "reference": "urn:uuid:e29fd0b4-63a3-4442-bf1a-e99e86d42a3b"
                            }
                        ]
                    },
                    {
                        "title": "QuestionnaireResponse",
                        "entry": [
                            {
                                "reference": "urn:uuid:3c7d9cbd-cab8-4c49-94af-1ef434052a7a"
                            }
                        ]
                    },
                    {
                        "title": "QuestionnaireResponse",
                        "entry": [
                            {
                                "reference": "urn:uuid:fdf181da-5670-4023-8fec-f1cf760698b2"
                            }
                        ]
                    },
                    {
                        "title": "QuestionnaireResponse",
                        "entry": [
                            {
                                "reference": "urn:uuid:722f13ac-4f09-4c96-8724-35594b9e61ca"
                            }
                        ]
                    },
                    {
                        "title": "QuestionnaireResponse",
                        "entry": [
                            {
                                "reference": "urn:uuid:e69d6968-dd5e-498b-bf53-34f0d654d832"
                            }
                        ]
                    },
                    {
                        "title": "QuestionnaireResponse",
                        "entry": [
                            {
                                "reference": "urn:uuid:e0deac17-2352-40ab-b67a-48543762f6e0"
                            }
                        ]
                    },
                    {
                        "title": "QuestionnaireResponse",
                        "entry": [
                            {
                                "reference": "urn:uuid:449e4ea1-fa92-43b6-9ba1-e6637ac0d3cc"
                            }
                        ]
                    },
                    {
                        "title": "QuestionnaireResponse",
                        "entry": [
                            {
                                "reference": "urn:uuid:3fb462b4-2d5d-450d-9428-bfcb6b84d885"
                            }
                        ]
                    },
                    {
                        "title": "QuestionnaireResponse",
                        "entry": [
                            {
                                "reference": "urn:uuid:6390b3ce-7e40-4cf2-b2ff-7961fc4eaf4d"
                            }
                        ]
                    },
                    {
                        "title": "QuestionnaireResponse",
                        "entry": [
                            {
                                "reference": "urn:uuid:9e58a7d1-304b-41c9-b508-c9a17d697da7"
                            }
                        ]
                    },
                    {
                        "title": "QuestionnaireResponse",
                        "entry": [
                            {
                                "reference": "urn:uuid:fcb2cad7-13a9-46a4-ae73-3accf2658aa8"
                            }
                        ]
                    },
                    {
                        "title": "QuestionnaireResponse",
                        "entry": [
                            {
                                "reference": "urn:uuid:4329d9c6-de63-463d-ae8c-8da2dc83383e"
                            }
                        ]
                    },
                    {
                        "title": "QuestionnaireResponse",
                        "entry": [
                            {
                                "reference": "urn:uuid:a7065a82-abbb-4bf5-8855-ebb36de8d472"
                            }
                        ]
                    },
                    {
                        "title": "QuestionnaireResponse",
                        "entry": [
                            {
                                "reference": "urn:uuid:1106f94d-cbc0-4e44-a88a-9a905e03a3d4"
                            }
                        ]
                    },
                    {
                        "title": "QuestionnaireResponse",
                        "entry": [
                            {
                                "reference": "urn:uuid:3f14e19a-37a5-4ebc-8e81-d083c18ec726"
                            }
                        ]
                    },
                    {
                        "title": "QuestionnaireResponse",
                        "entry": [
                            {
                                "reference": "urn:uuid:a3f2ca25-33d5-4814-ad03-ec9c22add58b"
                            }
                        ]
                    }
                ]
            }
        },
        {
            "fullUrl": "urn:uuid:33740fa8-ea2e-4d46-82a4-aec0d9758fbf",
            "resource": {
                "resourceType": "CarePlan",
                "status": "completed",
                "intent": "plan",
                "title": "Information and advice given",
                "description": "Do not perform any strenuous activities.",
                "subject": {
                    "reference": "urn:uuid:2acad963-34a4-41d6-a147-4802c53b4c3c"
                },
                "context": {
                    "reference": "urn:uuid:d5e1facb-b49f-419c-a64b-bf1081baca72"
                },
                "period": {
                    "start": "2017-01-01T20:00:00+00:00"
                },
                "author": [
                    {
                        "reference": "urn:uuid:6ea6a04c-8b66-4aee-aa2d-53e107110f04"
                    }
                ],
                "addresses": [
                    {
                        "reference": "urn:uuid:b8f7d385-c5bc-4b85-9b96-303a198bf88b"
                    }
                ]
            }
        },
        {
            "fullUrl": "urn:uuid:e3c7047b-1e91-4ee9-bdf6-b1c8750d426d",
            "resource": {
                "resourceType": "Consent",
                "text": {
                    "status": "generated",
                    "div": "<div xmlns=\"http://www.w3.org/1999/xhtml\">\n                                                    <table>\n                                                        <tbody>\n                                                            <tr>\n                                                                <th>Permission to view outcome</th>\n                                                                <td>Permission to view obtained</td>\n                                                            </tr>\n                                                            <tr>\n                                                                <th>Date obtained</th>\n                                                                <td>01-Jan-2017, 20:00</td>\n                                                            </tr>\n                                                            <tr>\n                                                                <th>Date expires</th>\n                                                                <td>15-Jan-2017, 20:00</td>\n                                                            </tr>\n                                                        </tbody>\n                                                    </table>\n                                                </div>"
                },
                "identifier": {
                    "use": "usual",
                    "value": "411910CF-1A76-4330-98FE-C345DDEE5553"
                },
                "status": "active",
                "patient": {
                    "reference": "urn:uuid:2acad963-34a4-41d6-a147-4802c53b4c3c"
                },
                "period": {
                    "start": "2017-01-01T20:00:00+00:00"
                },
                "consentingParty": [
                    {
                        "reference": "urn:uuid:2acad963-34a4-41d6-a147-4802c53b4c3c"
                    }
                ],
                "action": [
                    {
                        "coding": [
                            {
                                "system": "http://snomed.info/sct",
                                "code": "425691002",
                                "display": "Consent given for electronic record sharing"
                            }
                        ],
                        "text": "Consent given for electronic record sharing"
                    }
                ],
                "organization": [
                    {
                        "reference": "urn:uuid:6d4a0119-ee88-4576-b1a4-2526bb51b010"
                    }
                ],
                "sourceIdentifier": {
                    "value": "41D9F90F-6DB7-4939-BEF5-F8D75D79ECDD"
                },
                "policyRule": "http://hl7.org/fhir/ConsentPolicy/opt-out",
                "dataPeriod": {
                    "start": "2011-05-19T20:00:00+00:00",
                    "end": "2011-05-26T20:00:00+00:00"
                },
                "data": [
                    {
                        "meaning": "related",
                        "reference": {
                            "reference": "urn:uuid:d5e1facb-b49f-419c-a64b-bf1081baca72"
                        }
                    }
                ]
            }
        },
        {
            "fullUrl": "urn:uuid:b8f7d385-c5bc-4b85-9b96-303a198bf88b",
            "resource": {
                "resourceType": "Condition",
                "clinicalStatus": "active",
                "verificationStatus": "unknown",
                "code": {
                    "coding": [
                        {
                            "system": "22298006",
                            "code": "2.16.840.1.113883.2.1.3.2.4.15",
                            "display": "Myocardial infarction"
                        }
                    ]
                },
                "subject": {
                    "reference": "urn:uuid:2acad963-34a4-41d6-a147-4802c53b4c3c"
                },
                "context": {
                    "reference": "urn:uuid:d5e1facb-b49f-419c-a64b-bf1081baca72"
                },
                "assertedDate": "2017-06-01T14:00:00+00:00",
                "evidence": [
                    {
                        "detail": [
                            {
                                "reference": "urn:uuid:55580f71-382c-4985-8ea5-d16888ff3bff"
                            }
                        ]
                    },
                    {
                        "detail": [
                            {
                                "reference": "urn:uuid:926bfa37-b007-423b-b48a-7e7a7e98cb69"
                            }
                        ]
                    },
                    {
                        "detail": [
                            {
                                "reference": "urn:uuid:aa151ffb-5cf7-4854-80ee-980bd73ba09f"
                            }
                        ]
                    },
                    {
                        "detail": [
                            {
                                "reference": "urn:uuid:7da5c37c-4f73-42cb-bc0a-b6fc8c3973ec"
                            }
                        ]
                    },
                    {
                        "detail": [
                            {
                                "reference": "urn:uuid:346036b1-54fc-413a-ba4c-e83bcd0300df"
                            }
                        ]
                    },
                    {
                        "detail": [
                            {
                                "reference": "urn:uuid:26218052-526f-415c-a8b8-9a6f5d728b52"
                            }
                        ]
                    },
                    {
                        "detail": [
                            {
                                "reference": "urn:uuid:7ed816db-1dd5-4f8b-8b27-50d11c97f5c9"
                            }
                        ]
                    },
                    {
                        "detail": [
                            {
                                "reference": "urn:uuid:f3794058-9c8f-4d9f-8f50-ef03b2b070cd"
                            }
                        ]
                    },
                    {
                        "detail": [
                            {
                                "reference": "urn:uuid:e29fd0b4-63a3-4442-bf1a-e99e86d42a3b"
                            }
                        ]
                    },
                    {
                        "detail": [
                            {
                                "reference": "urn:uuid:3c7d9cbd-cab8-4c49-94af-1ef434052a7a"
                            }
                        ]
                    },
                    {
                        "detail": [
                            {
                                "reference": "urn:uuid:fdf181da-5670-4023-8fec-f1cf760698b2"
                            }
                        ]
                    },
                    {
                        "detail": [
                            {
                                "reference": "urn:uuid:722f13ac-4f09-4c96-8724-35594b9e61ca"
                            }
                        ]
                    },
                    {
                        "detail": [
                            {
                                "reference": "urn:uuid:e69d6968-dd5e-498b-bf53-34f0d654d832"
                            }
                        ]
                    },
                    {
                        "detail": [
                            {
                                "reference": "urn:uuid:e0deac17-2352-40ab-b67a-48543762f6e0"
                            }
                        ]
                    },
                    {
                        "detail": [
                            {
                                "reference": "urn:uuid:449e4ea1-fa92-43b6-9ba1-e6637ac0d3cc"
                            }
                        ]
                    },
                    {
                        "detail": [
                            {
                                "reference": "urn:uuid:3fb462b4-2d5d-450d-9428-bfcb6b84d885"
                            }
                        ]
                    },
                    {
                        "detail": [
                            {
                                "reference": "urn:uuid:6390b3ce-7e40-4cf2-b2ff-7961fc4eaf4d"
                            }
                        ]
                    },
                    {
                        "detail": [
                            {
                                "reference": "urn:uuid:9e58a7d1-304b-41c9-b508-c9a17d697da7"
                            }
                        ]
                    },
                    {
                        "detail": [
                            {
                                "reference": "urn:uuid:fcb2cad7-13a9-46a4-ae73-3accf2658aa8"
                            }
                        ]
                    },
                    {
                        "detail": [
                            {
                                "reference": "urn:uuid:4329d9c6-de63-463d-ae8c-8da2dc83383e"
                            }
                        ]
                    },
                    {
                        "detail": [
                            {
                                "reference": "urn:uuid:a7065a82-abbb-4bf5-8855-ebb36de8d472"
                            }
                        ]
                    },
                    {
                        "detail": [
                            {
                                "reference": "urn:uuid:1106f94d-cbc0-4e44-a88a-9a905e03a3d4"
                            }
                        ]
                    },
                    {
                        "detail": [
                            {
                                "reference": "urn:uuid:3f14e19a-37a5-4ebc-8e81-d083c18ec726"
                            }
                        ]
                    },
                    {
                        "detail": [
                            {
                                "reference": "urn:uuid:a3f2ca25-33d5-4814-ad03-ec9c22add58b"
                            }
                        ]
                    }
                ]
            }
        },
        {
            "fullUrl": "urn:uuid:55580f71-382c-4985-8ea5-d16888ff3bff",
            "resource": {
                "resourceType": "QuestionnaireResponse",
                "identifier": {
                    "value": "8067b9b2-e604-4414-b56f-8e3cc4de4b1b"
                },
                "questionnaire": {
                    "reference": "urn:uuid:3b67bcb5-4820-4a8d-ad2d-57d54543c359"
                },
                "status": "completed",
                "subject": {
                    "reference": "urn:uuid:2acad963-34a4-41d6-a147-4802c53b4c3c"
                },
                "context": {
                    "reference": "urn:uuid:d5e1facb-b49f-419c-a64b-bf1081baca72"
                },
                "authored": "2011-02-17T00:00:00+00:00",
                "item": [
                    {
                        "linkId": "N/A"
                    }
                ]
            }
        },
        {
            "fullUrl": "urn:uuid:3b67bcb5-4820-4a8d-ad2d-57d54543c359",
            "resource": {
                "resourceType": "Questionnaire",
                "identifier": [
                    {
                        "value": "8067b9b2-e604-4414-b56f-8e3cc4de4b1b"
                    }
                ],
                "version": "Thu Feb 17 00:00:00 UTC 2011",
                "status": "active",
                "experimental": false,
                "date": "2011-02-17T00:00:00+00:00",
                "publisher": "User ID: '3137' User name: 'redacted' User skill set: 'T1'",
                "lastReviewDate": "2011-02-17",
                "jurisdiction": [
                    {
                        "text": "England"
                    }
                ],
                "contact": [
                    {
                        "telecom": [
                            {
                                "value": "redacted"
                            }
                        ]
                    }
                ],
                "subjectType": [
                    "Patient"
                ],
                "item": [
                    {
                        "linkId": "8067b9b2-e604-4414-b56f-8e3cc4de4b1b",
                        "prefix": "0",
                        "type": "choice",
                        "required": true,
                        "repeats": false,
                        "option": [
                            {
                                "valueString": ", Selected: false"
                            }
                        ]
                    }
                ]
            }
        },
        {
            "fullUrl": "urn:uuid:926bfa37-b007-423b-b48a-7e7a7e98cb69",
            "resource": {
                "resourceType": "QuestionnaireResponse",
                "identifier": {
                    "value": "8067b9b2-e604-4414-b56f-8e3cc4de4b1b"
                },
                "questionnaire": {
                    "reference": "urn:uuid:20a1aa4f-72f8-4954-b69e-74b0a1d0a869"
                },
                "status": "completed",
                "subject": {
                    "reference": "urn:uuid:2acad963-34a4-41d6-a147-4802c53b4c3c"
                },
                "context": {
                    "reference": "urn:uuid:d5e1facb-b49f-419c-a64b-bf1081baca72"
                },
                "authored": "2011-02-17T00:00:00+00:00",
                "item": [
                    {
                        "linkId": "N/A"
                    }
                ]
            }
        },
        {
            "fullUrl": "urn:uuid:20a1aa4f-72f8-4954-b69e-74b0a1d0a869",
            "resource": {
                "resourceType": "Questionnaire",
                "identifier": [
                    {
                        "value": "8067b9b2-e604-4414-b56f-8e3cc4de4b1b"
                    }
                ],
                "version": "Thu Feb 17 00:00:00 UTC 2011",
                "status": "active",
                "experimental": false,
                "date": "2011-02-17T00:00:00+00:00",
                "publisher": "User ID: '3137' User name: 'redacted' User skill set: 'T1'",
                "lastReviewDate": "2011-02-17",
                "jurisdiction": [
                    {
                        "text": "England"
                    }
                ],
                "contact": [
                    {
                        "telecom": [
                            {
                                "value": "redacted"
                            }
                        ]
                    }
                ],
                "subjectType": [
                    "Patient"
                ],
                "item": [
                    {
                        "linkId": "8067b9b2-e604-4414-b56f-8e3cc4de4b1b",
                        "prefix": "0",
                        "type": "choice",
                        "required": true,
                        "repeats": false,
                        "option": [
                            {
                                "valueString": ", Selected: false"
                            }
                        ]
                    }
                ]
            }
        },
        {
            "fullUrl": "urn:uuid:aa151ffb-5cf7-4854-80ee-980bd73ba09f",
            "resource": {
                "resourceType": "QuestionnaireResponse",
                "identifier": {
                    "value": "8067b9b2-e604-4414-b56f-8e3cc4de4b1b"
                },
                "questionnaire": {
                    "reference": "urn:uuid:aaa1221d-b348-4901-a73e-b7e592bba037"
                },
                "status": "completed",
                "subject": {
                    "reference": "urn:uuid:2acad963-34a4-41d6-a147-4802c53b4c3c"
                },
                "context": {
                    "reference": "urn:uuid:d5e1facb-b49f-419c-a64b-bf1081baca72"
                },
                "authored": "2011-02-17T00:00:00+00:00",
                "item": [
                    {
                        "linkId": "Tx220109",
                        "text": "What is the reason for the call?",
                        "answer": [
                            {
                                "valueString": "an injury or other health problem"
                            }
                        ]
                    }
                ]
            }
        },
        {
            "fullUrl": "urn:uuid:aaa1221d-b348-4901-a73e-b7e592bba037",
            "resource": {
                "resourceType": "Questionnaire",
                "identifier": [
                    {
                        "value": "8067b9b2-e604-4414-b56f-8e3cc4de4b1b"
                    }
                ],
                "version": "Thu Feb 17 00:00:00 UTC 2011",
                "status": "active",
                "experimental": false,
                "date": "2011-02-17T00:00:00+00:00",
                "publisher": "User ID: '3137' User name: 'redacted' User skill set: 'T1'",
                "lastReviewDate": "2011-02-17",
                "jurisdiction": [
                    {
                        "text": "England"
                    }
                ],
                "contact": [
                    {
                        "telecom": [
                            {
                                "value": "redacted"
                            }
                        ]
                    }
                ],
                "subjectType": [
                    "Patient"
                ],
                "item": [
                    {
                        "linkId": "8067b9b2-e604-4414-b56f-8e3cc4de4b1b",
                        "prefix": "5",
                        "text": "What is the reason for the call?",
                        "type": "choice",
                        "required": true,
                        "repeats": false,
                        "option": [
                            {
                                "valueString": "an injury or other health problem, Selected: true"
                            },
                            {
                                "valueString": "a need to access another healthcare provider, Selected: false"
                            },
                            {
                                "valueString": "a healthcare professional requesting contact with another clinician, Selected: false"
                            },
                            {
                                "valueString": "a report of results or tests, Selected: false"
                            },
                            {
                                "valueString": "more, Selected: false"
                            }
                        ]
                    }
                ]
            }
        },
        {
            "fullUrl": "urn:uuid:7da5c37c-4f73-42cb-bc0a-b6fc8c3973ec",
            "resource": {
                "resourceType": "QuestionnaireResponse",
                "identifier": {
                    "value": "8067b9b2-e604-4414-b56f-8e3cc4de4b1b"
                },
                "questionnaire": {
                    "reference": "urn:uuid:20a73894-1294-4ea5-86bb-c393cef3920b"
                },
                "status": "completed",
                "subject": {
                    "reference": "urn:uuid:2acad963-34a4-41d6-a147-4802c53b4c3c"
                },
                "context": {
                    "reference": "urn:uuid:d5e1facb-b49f-419c-a64b-bf1081baca72"
                },
                "authored": "2011-02-17T00:00:00+00:00",
                "item": [
                    {
                        "linkId": "Tx140118",
                        "text": "Has the baby just been born?",
                        "answer": [
                            {
                                "valueString": "no"
                            }
                        ]
                    }
                ]
            }
        },
        {
            "fullUrl": "urn:uuid:20a73894-1294-4ea5-86bb-c393cef3920b",
            "resource": {
                "resourceType": "Questionnaire",
                "identifier": [
                    {
                        "value": "8067b9b2-e604-4414-b56f-8e3cc4de4b1b"
                    }
                ],
                "version": "Thu Feb 17 00:00:00 UTC 2011",
                "status": "active",
                "experimental": false,
                "date": "2011-02-17T00:00:00+00:00",
                "publisher": "User ID: '3137' User name: 'redacted' User skill set: 'T1'",
                "lastReviewDate": "2011-02-17",
                "jurisdiction": [
                    {
                        "text": "England"
                    }
                ],
                "contact": [
                    {
                        "telecom": [
                            {
                                "value": "redacted"
                            }
                        ]
                    }
                ],
                "subjectType": [
                    "Patient"
                ],
                "item": [
                    {
                        "linkId": "8067b9b2-e604-4414-b56f-8e3cc4de4b1b",
                        "prefix": "35",
                        "text": "Has the baby just been born?",
                        "type": "choice",
                        "required": true,
                        "repeats": false,
                        "option": [
                            {
                                "valueString": "yes, Selected: false"
                            },
                            {
                                "valueString": "not sure, Selected: false"
                            },
                            {
                                "valueString": "no, Selected: true"
                            }
                        ]
                    }
                ]
            }
        },
        {
            "fullUrl": "urn:uuid:346036b1-54fc-413a-ba4c-e83bcd0300df",
            "resource": {
                "resourceType": "QuestionnaireResponse",
                "identifier": {
                    "value": "8067b9b2-e604-4414-b56f-8e3cc4de4b1b"
                },
                "questionnaire": {
                    "reference": "urn:uuid:1511007e-7f08-45ed-9227-831b2a61cb19"
                },
                "status": "completed",
                "subject": {
                    "reference": "urn:uuid:2acad963-34a4-41d6-a147-4802c53b4c3c"
                },
                "context": {
                    "reference": "urn:uuid:d5e1facb-b49f-419c-a64b-bf1081baca72"
                },
                "authored": "2011-02-17T00:00:00+00:00",
                "item": [
                    {
                        "linkId": "Tx220110",
                        "text": "Is he breathing and conscious?",
                        "answer": [
                            {
                                "valueString": "breathing AND conscious"
                            }
                        ]
                    }
                ]
            }
        },
        {
            "fullUrl": "urn:uuid:1511007e-7f08-45ed-9227-831b2a61cb19",
            "resource": {
                "resourceType": "Questionnaire",
                "identifier": [
                    {
                        "value": "8067b9b2-e604-4414-b56f-8e3cc4de4b1b"
                    }
                ],
                "version": "Thu Feb 17 00:00:00 UTC 2011",
                "status": "active",
                "experimental": false,
                "date": "2011-02-17T00:00:00+00:00",
                "publisher": "User ID: '3137' User name: 'redacted' User skill set: 'T1'",
                "lastReviewDate": "2011-02-17",
                "jurisdiction": [
                    {
                        "text": "England"
                    }
                ],
                "contact": [
                    {
                        "telecom": [
                            {
                                "value": "redacted"
                            }
                        ]
                    }
                ],
                "subjectType": [
                    "Patient"
                ],
                "item": [
                    {
                        "linkId": "8067b9b2-e604-4414-b56f-8e3cc4de4b1b",
                        "prefix": "40",
                        "text": "Is he breathing and conscious?",
                        "type": "choice",
                        "required": true,
                        "repeats": false,
                        "option": [
                            {
                                "valueString": "breathing AND conscious, Selected: true"
                            },
                            {
                                "valueString": "breathing but NOT conscious (includes current fitting), Selected: false"
                            },
                            {
                                "valueString": "NOT breathing, Selected: false"
                            },
                            {
                                "valueString": "choking now, Selected: false"
                            }
                        ]
                    }
                ]
            }
        },
        {
            "fullUrl": "urn:uuid:26218052-526f-415c-a8b8-9a6f5d728b52",
            "resource": {
                "resourceType": "QuestionnaireResponse",
                "identifier": {
                    "value": "8067b9b2-e604-4414-b56f-8e3cc4de4b1b"
                },
                "questionnaire": {
                    "reference": "urn:uuid:1fbb4da4-a242-4aea-aada-2c5986fd02fe"
                },
                "status": "completed",
                "subject": {
                    "reference": "urn:uuid:2acad963-34a4-41d6-a147-4802c53b4c3c"
                },
                "context": {
                    "reference": "urn:uuid:d5e1facb-b49f-419c-a64b-bf1081baca72"
                },
                "authored": "2011-02-17T00:00:00+00:00",
                "item": [
                    {
                        "linkId": "Tx220285",
                        "text": "Has he been bleeding very heavily IN THE LAST HOUR?",
                        "answer": [
                            {
                                "valueString": "no"
                            }
                        ]
                    }
                ]
            }
        },
        {
            "fullUrl": "urn:uuid:1fbb4da4-a242-4aea-aada-2c5986fd02fe",
            "resource": {
                "resourceType": "Questionnaire",
                "identifier": [
                    {
                        "value": "8067b9b2-e604-4414-b56f-8e3cc4de4b1b"
                    }
                ],
                "version": "Thu Feb 17 00:00:00 UTC 2011",
                "status": "active",
                "experimental": false,
                "date": "2011-02-17T00:00:00+00:00",
                "publisher": "User ID: '3137' User name: 'redacted' User skill set: 'T1'",
                "lastReviewDate": "2011-02-17",
                "jurisdiction": [
                    {
                        "text": "England"
                    }
                ],
                "contact": [
                    {
                        "telecom": [
                            {
                                "value": "redacted"
                            }
                        ]
                    }
                ],
                "subjectType": [
                    "Patient"
                ],
                "item": [
                    {
                        "linkId": "8067b9b2-e604-4414-b56f-8e3cc4de4b1b",
                        "prefix": "60",
                        "text": "Has he been bleeding very heavily IN THE LAST HOUR?",
                        "type": "choice",
                        "required": true,
                        "repeats": false,
                        "option": [
                            {
                                "valueString": "blood spurting from a wound, Selected: false"
                            },
                            {
                                "valueString": "an egg cupful or more of red blood from a body opening, Selected: false"
                            },
                            {
                                "valueString": "an egg cupful or more from a wound, Selected: false"
                            },
                            {
                                "valueString": "not sure, Selected: false"
                            },
                            {
                                "valueString": "no, Selected: true"
                            }
                        ]
                    }
                ]
            }
        },
        {
            "fullUrl": "urn:uuid:7ed816db-1dd5-4f8b-8b27-50d11c97f5c9",
            "resource": {
                "resourceType": "QuestionnaireResponse",
                "identifier": {
                    "value": "8067b9b2-e604-4414-b56f-8e3cc4de4b1b"
                },
                "questionnaire": {
                    "reference": "urn:uuid:defd23e4-0d81-419c-8e4e-0a7936f6c864"
                },
                "status": "completed",
                "subject": {
                    "reference": "urn:uuid:2acad963-34a4-41d6-a147-4802c53b4c3c"
                },
                "context": {
                    "reference": "urn:uuid:d5e1facb-b49f-419c-a64b-bf1081baca72"
                },
                "authored": "2011-02-17T00:00:00+00:00",
                "item": [
                    {
                        "linkId": "N/A",
                        "text": "SocialConcernsExcluded",
                        "answer": [
                            {
                                "valueString": "*"
                            }
                        ]
                    }
                ]
            }
        },
        {
            "fullUrl": "urn:uuid:defd23e4-0d81-419c-8e4e-0a7936f6c864",
            "resource": {
                "resourceType": "Questionnaire",
                "identifier": [
                    {
                        "value": "8067b9b2-e604-4414-b56f-8e3cc4de4b1b"
                    }
                ],
                "version": "Thu Feb 17 00:00:00 UTC 2011",
                "status": "active",
                "experimental": false,
                "date": "2011-02-17T00:00:00+00:00",
                "publisher": "User ID: '3137' User name: 'redacted' User skill set: 'T1'",
                "lastReviewDate": "2011-02-17",
                "jurisdiction": [
                    {
                        "text": "England"
                    }
                ],
                "contact": [
                    {
                        "telecom": [
                            {
                                "value": "redacted"
                            }
                        ]
                    }
                ],
                "subjectType": [
                    "Patient"
                ],
                "item": [
                    {
                        "linkId": "8067b9b2-e604-4414-b56f-8e3cc4de4b1b",
                        "prefix": "2050",
                        "text": "SocialConcernsExcluded",
                        "type": "choice",
                        "required": true,
                        "repeats": false,
                        "option": [
                            {
                                "valueString": "==\"present\", Selected: false"
                            },
                            {
                                "valueString": "*, Selected: true"
                            }
                        ]
                    }
                ]
            }
        },
        {
            "fullUrl": "urn:uuid:f3794058-9c8f-4d9f-8f50-ef03b2b070cd",
            "resource": {
                "resourceType": "QuestionnaireResponse",
                "identifier": {
                    "value": "8067b9b2-e604-4414-b56f-8e3cc4de4b1b"
                },
                "questionnaire": {
                    "reference": "urn:uuid:61730399-2756-4551-89f2-34fb7661ff50"
                },
                "status": "completed",
                "subject": {
                    "reference": "urn:uuid:2acad963-34a4-41d6-a147-4802c53b4c3c"
                },
                "context": {
                    "reference": "urn:uuid:d5e1facb-b49f-419c-a64b-bf1081baca72"
                },
                "authored": "2011-02-17T00:00:00+00:00",
                "item": [
                    {
                        "linkId": "Tx140159",
                        "text": "What is the reason for ending the assessment?",
                        "answer": [
                            {
                                "valueString": "transfer to a clinician"
                            }
                        ]
                    }
                ]
            }
        },
        {
            "fullUrl": "urn:uuid:61730399-2756-4551-89f2-34fb7661ff50",
            "resource": {
                "resourceType": "Questionnaire",
                "identifier": [
                    {
                        "value": "8067b9b2-e604-4414-b56f-8e3cc4de4b1b"
                    }
                ],
                "version": "Thu Feb 17 00:00:00 UTC 2011",
                "status": "active",
                "experimental": false,
                "date": "2011-02-17T00:00:00+00:00",
                "publisher": "User ID: '3137' User name: 'redacted' User skill set: 'T1'",
                "lastReviewDate": "2011-02-17",
                "jurisdiction": [
                    {
                        "text": "England"
                    }
                ],
                "contact": [
                    {
                        "telecom": [
                            {
                                "value": "redacted"
                            }
                        ]
                    }
                ],
                "subjectType": [
                    "Patient"
                ],
                "item": [
                    {
                        "linkId": "8067b9b2-e604-4414-b56f-8e3cc4de4b1b",
                        "prefix": "0",
                        "text": "What is the reason for ending the assessment?",
                        "type": "choice",
                        "required": true,
                        "repeats": false,
                        "option": [
                            {
                                "valueString": "the phone line went dead, Selected: false"
                            },
                            {
                                "valueString": "the caller terminated the call (specify), Selected: false"
                            },
                            {
                                "valueString": "I terminated the call (specify), Selected: false"
                            },
                            {
                                "valueString": "triage not possible, Selected: false"
                            },
                            {
                                "valueString": "transfer to a clinician, Selected: true"
                            }
                        ]
                    }
                ]
            }
        },
        {
            "fullUrl": "urn:uuid:e29fd0b4-63a3-4442-bf1a-e99e86d42a3b",
            "resource": {
                "resourceType": "QuestionnaireResponse",
                "identifier": {
                    "value": "8067b9b2-e604-4414-b56f-8e3cc4de4b1b"
                },
                "questionnaire": {
                    "reference": "urn:uuid:fe6f431e-452c-4d94-83c6-cfbd0ff7313d"
                },
                "status": "completed",
                "subject": {
                    "reference": "urn:uuid:2acad963-34a4-41d6-a147-4802c53b4c3c"
                },
                "context": {
                    "reference": "urn:uuid:d5e1facb-b49f-419c-a64b-bf1081baca72"
                },
                "authored": "2011-02-17T00:00:00+00:00",
                "item": [
                    {
                        "linkId": "Tx220408",
                        "text": "WHAT IS THE REASON FOR TRANSFER TO A CLINICIAN?",
                        "answer": [
                            {
                                "valueString": "other complex call (specify)"
                            }
                        ]
                    }
                ]
            }
        },
        {
            "fullUrl": "urn:uuid:fe6f431e-452c-4d94-83c6-cfbd0ff7313d",
            "resource": {
                "resourceType": "Questionnaire",
                "identifier": [
                    {
                        "value": "8067b9b2-e604-4414-b56f-8e3cc4de4b1b"
                    }
                ],
                "version": "Thu Feb 17 00:00:00 UTC 2011",
                "status": "active",
                "experimental": false,
                "date": "2011-02-17T00:00:00+00:00",
                "publisher": "User ID: '3137' User name: 'redacted' User skill set: 'T1'",
                "lastReviewDate": "2011-02-17",
                "jurisdiction": [
                    {
                        "text": "England"
                    }
                ],
                "contact": [
                    {
                        "telecom": [
                            {
                                "value": "redacted"
                            }
                        ]
                    }
                ],
                "subjectType": [
                    "Patient"
                ],
                "item": [
                    {
                        "linkId": "8067b9b2-e604-4414-b56f-8e3cc4de4b1b",
                        "prefix": "50",
                        "text": "WHAT IS THE REASON FOR TRANSFER TO A CLINICIAN?",
                        "type": "choice",
                        "required": true,
                        "repeats": false,
                        "option": [
                            {
                                "valueString": "caller refuses disposition, Selected: false"
                            },
                            {
                                "valueString": "multiple unrelated symptoms, Selected: false"
                            },
                            {
                                "valueString": "difficulty obtaining adequate information, Selected: false"
                            },
                            {
                                "valueString": "medication or medical procedure enquiry, Selected: false"
                            },
                            {
                                "valueString": "declared medical history (details not required), Selected: false"
                            },
                            {
                                "valueString": "other complex call (specify), Selected: true"
                            }
                        ]
                    }
                ]
            }
        },
        {
            "fullUrl": "urn:uuid:3c7d9cbd-cab8-4c49-94af-1ef434052a7a",
            "resource": {
                "resourceType": "QuestionnaireResponse",
                "identifier": {
                    "value": "8067b9b2-e604-4414-b56f-8e3cc4de4b1b"
                },
                "questionnaire": {
                    "reference": "urn:uuid:ae82b5c0-5917-436e-9c48-f1325acc2c75"
                },
                "status": "completed",
                "subject": {
                    "reference": "urn:uuid:2acad963-34a4-41d6-a147-4802c53b4c3c"
                },
                "context": {
                    "reference": "urn:uuid:d5e1facb-b49f-419c-a64b-bf1081baca72"
                },
                "authored": "2011-02-17T00:00:00+00:00",
                "item": [
                    {
                        "linkId": "N/A",
                        "text": "Speak to Clinician from our Service immediately"
                    }
                ]
            }
        },
        {
            "fullUrl": "urn:uuid:ae82b5c0-5917-436e-9c48-f1325acc2c75",
            "resource": {
                "resourceType": "Questionnaire",
                "identifier": [
                    {
                        "value": "8067b9b2-e604-4414-b56f-8e3cc4de4b1b"
                    }
                ],
                "version": "Thu Feb 17 00:00:00 UTC 2011",
                "status": "active",
                "experimental": false,
                "date": "2011-02-17T00:00:00+00:00",
                "publisher": "User ID: '3137' User name: 'redacted' User skill set: 'T1'",
                "lastReviewDate": "2011-02-17",
                "jurisdiction": [
                    {
                        "text": "England"
                    }
                ],
                "contact": [
                    {
                        "telecom": [
                            {
                                "value": "redacted"
                            }
                        ]
                    }
                ],
                "subjectType": [
                    "Patient"
                ],
                "item": [
                    {
                        "linkId": "8067b9b2-e604-4414-b56f-8e3cc4de4b1b",
                        "prefix": "0",
                        "text": "Speak to Clinician from our Service immediately",
                        "type": "choice",
                        "required": true,
                        "repeats": false,
                        "option": [
                            {
                                "valueString": ", Selected: false"
                            }
                        ]
                    }
                ]
            }
        },
        {
            "fullUrl": "urn:uuid:fdf181da-5670-4023-8fec-f1cf760698b2",
            "resource": {
                "resourceType": "QuestionnaireResponse",
                "identifier": {
                    "value": "8067b9b2-e604-4414-b56f-8e3cc4de4b1b"
                },
                "questionnaire": {
                    "reference": "urn:uuid:fe9e8ba3-54fd-442e-896f-797de7b45e33"
                },
                "status": "completed",
                "subject": {
                    "reference": "urn:uuid:2acad963-34a4-41d6-a147-4802c53b4c3c"
                },
                "context": {
                    "reference": "urn:uuid:d5e1facb-b49f-419c-a64b-bf1081baca72"
                },
                "authored": "2011-02-17T00:00:00+00:00",
                "item": [
                    {
                        "linkId": "N/A"
                    }
                ]
            }
        },
        {
            "fullUrl": "urn:uuid:fe9e8ba3-54fd-442e-896f-797de7b45e33",
            "resource": {
                "resourceType": "Questionnaire",
                "identifier": [
                    {
                        "value": "8067b9b2-e604-4414-b56f-8e3cc4de4b1b"
                    }
                ],
                "version": "Thu Feb 17 00:00:00 UTC 2011",
                "status": "active",
                "experimental": false,
                "date": "2011-02-17T00:00:00+00:00",
                "publisher": "User ID: '3137' User name: 'redacted' User skill set: 'T1'",
                "lastReviewDate": "2011-02-17",
                "jurisdiction": [
                    {
                        "text": "England"
                    }
                ],
                "contact": [
                    {
                        "telecom": [
                            {
                                "value": "redacted"
                            }
                        ]
                    }
                ],
                "subjectType": [
                    "Patient"
                ],
                "item": [
                    {
                        "linkId": "8067b9b2-e604-4414-b56f-8e3cc4de4b1b",
                        "prefix": "0",
                        "type": "choice",
                        "required": true,
                        "repeats": false,
                        "option": [
                            {
                                "valueString": ", Selected: false"
                            }
                        ]
                    }
                ]
            }
        },
        {
            "fullUrl": "urn:uuid:722f13ac-4f09-4c96-8724-35594b9e61ca",
            "resource": {
                "resourceType": "QuestionnaireResponse",
                "identifier": {
                    "value": "8067b9b2-e604-4414-b56f-8e3cc4de4b1b"
                },
                "questionnaire": {
                    "reference": "urn:uuid:68accb52-3178-4b56-aef4-15e77b2ea527"
                },
                "status": "completed",
                "subject": {
                    "reference": "urn:uuid:2acad963-34a4-41d6-a147-4802c53b4c3c"
                },
                "context": {
                    "reference": "urn:uuid:d5e1facb-b49f-419c-a64b-bf1081baca72"
                },
                "authored": "2011-02-17T00:00:00+00:00",
                "item": [
                    {
                        "linkId": "N/A"
                    }
                ]
            }
        },
        {
            "fullUrl": "urn:uuid:68accb52-3178-4b56-aef4-15e77b2ea527",
            "resource": {
                "resourceType": "Questionnaire",
                "identifier": [
                    {
                        "value": "8067b9b2-e604-4414-b56f-8e3cc4de4b1b"
                    }
                ],
                "version": "Thu Feb 17 00:00:00 UTC 2011",
                "status": "active",
                "experimental": false,
                "date": "2011-02-17T00:00:00+00:00",
                "publisher": "User ID: '3137' User name: 'redacted' User skill set: 'T1'",
                "lastReviewDate": "2011-02-17",
                "jurisdiction": [
                    {
                        "text": "England"
                    }
                ],
                "contact": [
                    {
                        "telecom": [
                            {
                                "value": "redacted"
                            }
                        ]
                    }
                ],
                "subjectType": [
                    "Patient"
                ],
                "item": [
                    {
                        "linkId": "8067b9b2-e604-4414-b56f-8e3cc4de4b1b",
                        "prefix": "0",
                        "type": "choice",
                        "required": true,
                        "repeats": false,
                        "option": [
                            {
                                "valueString": ", Selected: false"
                            }
                        ]
                    }
                ]
            }
        },
        {
            "fullUrl": "urn:uuid:e69d6968-dd5e-498b-bf53-34f0d654d832",
            "resource": {
                "resourceType": "QuestionnaireResponse",
                "identifier": {
                    "value": "8067b9b2-e604-4414-b56f-8e3cc4de4b1b"
                },
                "questionnaire": {
                    "reference": "urn:uuid:aa4a4f93-640a-4616-876b-0e4ad1454cc2"
                },
                "status": "completed",
                "subject": {
                    "reference": "urn:uuid:2acad963-34a4-41d6-a147-4802c53b4c3c"
                },
                "context": {
                    "reference": "urn:uuid:d5e1facb-b49f-419c-a64b-bf1081baca72"
                },
                "authored": "2011-02-17T00:00:00+00:00",
                "item": [
                    {
                        "linkId": "Tx220109",
                        "text": "What is the reason for the call?",
                        "answer": [
                            {
                                "valueString": "an injury or other health problem"
                            }
                        ]
                    }
                ]
            }
        },
        {
            "fullUrl": "urn:uuid:aa4a4f93-640a-4616-876b-0e4ad1454cc2",
            "resource": {
                "resourceType": "Questionnaire",
                "identifier": [
                    {
                        "value": "8067b9b2-e604-4414-b56f-8e3cc4de4b1b"
                    }
                ],
                "version": "Thu Feb 17 00:00:00 UTC 2011",
                "status": "active",
                "experimental": false,
                "date": "2011-02-17T00:00:00+00:00",
                "publisher": "User ID: '3137' User name: 'redacted' User skill set: 'T1'",
                "lastReviewDate": "2011-02-17",
                "jurisdiction": [
                    {
                        "text": "England"
                    }
                ],
                "contact": [
                    {
                        "telecom": [
                            {
                                "value": "redacted"
                            }
                        ]
                    }
                ],
                "subjectType": [
                    "Patient"
                ],
                "item": [
                    {
                        "linkId": "8067b9b2-e604-4414-b56f-8e3cc4de4b1b",
                        "prefix": "5",
                        "text": "What is the reason for the call?",
                        "type": "choice",
                        "required": true,
                        "repeats": false,
                        "option": [
                            {
                                "valueString": "an injury or other health problem, Selected: true"
                            },
                            {
                                "valueString": "a need to access another healthcare provider, Selected: false"
                            },
                            {
                                "valueString": "a healthcare professional requesting contact with another clinician, Selected: false"
                            },
                            {
                                "valueString": "a report of results or tests, Selected: false"
                            },
                            {
                                "valueString": "more, Selected: false"
                            }
                        ]
                    }
                ]
            }
        },
        {
            "fullUrl": "urn:uuid:e0deac17-2352-40ab-b67a-48543762f6e0",
            "resource": {
                "resourceType": "QuestionnaireResponse",
                "identifier": {
                    "value": "8067b9b2-e604-4414-b56f-8e3cc4de4b1b"
                },
                "questionnaire": {
                    "reference": "urn:uuid:128a404d-7554-4bf6-afff-0d7c05a49a31"
                },
                "status": "completed",
                "subject": {
                    "reference": "urn:uuid:2acad963-34a4-41d6-a147-4802c53b4c3c"
                },
                "context": {
                    "reference": "urn:uuid:d5e1facb-b49f-419c-a64b-bf1081baca72"
                },
                "authored": "2011-02-17T00:00:00+00:00",
                "item": [
                    {
                        "linkId": "Tx140118",
                        "text": "Has the baby just been born?",
                        "answer": [
                            {
                                "valueString": "no"
                            }
                        ]
                    }
                ]
            }
        },
        {
            "fullUrl": "urn:uuid:128a404d-7554-4bf6-afff-0d7c05a49a31",
            "resource": {
                "resourceType": "Questionnaire",
                "identifier": [
                    {
                        "value": "8067b9b2-e604-4414-b56f-8e3cc4de4b1b"
                    }
                ],
                "version": "Thu Feb 17 00:00:00 UTC 2011",
                "status": "active",
                "experimental": false,
                "date": "2011-02-17T00:00:00+00:00",
                "publisher": "User ID: '3137' User name: 'redacted' User skill set: 'T1'",
                "lastReviewDate": "2011-02-17",
                "jurisdiction": [
                    {
                        "text": "England"
                    }
                ],
                "contact": [
                    {
                        "telecom": [
                            {
                                "value": "redacted"
                            }
                        ]
                    }
                ],
                "subjectType": [
                    "Patient"
                ],
                "item": [
                    {
                        "linkId": "8067b9b2-e604-4414-b56f-8e3cc4de4b1b",
                        "prefix": "35",
                        "text": "Has the baby just been born?",
                        "type": "choice",
                        "required": true,
                        "repeats": false,
                        "option": [
                            {
                                "valueString": "yes, Selected: false"
                            },
                            {
                                "valueString": "not sure, Selected: false"
                            },
                            {
                                "valueString": "no, Selected: true"
                            }
                        ]
                    }
                ]
            }
        },
        {
            "fullUrl": "urn:uuid:449e4ea1-fa92-43b6-9ba1-e6637ac0d3cc",
            "resource": {
                "resourceType": "QuestionnaireResponse",
                "identifier": {
                    "value": "8067b9b2-e604-4414-b56f-8e3cc4de4b1b"
                },
                "questionnaire": {
                    "reference": "urn:uuid:74f64f79-6a8f-4837-8e9a-9b39661d5325"
                },
                "status": "completed",
                "subject": {
                    "reference": "urn:uuid:2acad963-34a4-41d6-a147-4802c53b4c3c"
                },
                "context": {
                    "reference": "urn:uuid:d5e1facb-b49f-419c-a64b-bf1081baca72"
                },
                "authored": "2011-02-17T00:00:00+00:00",
                "item": [
                    {
                        "linkId": "Tx220110",
                        "text": "Is he breathing and conscious?",
                        "answer": [
                            {
                                "valueString": "breathing AND conscious"
                            }
                        ]
                    }
                ]
            }
        },
        {
            "fullUrl": "urn:uuid:74f64f79-6a8f-4837-8e9a-9b39661d5325",
            "resource": {
                "resourceType": "Questionnaire",
                "identifier": [
                    {
                        "value": "8067b9b2-e604-4414-b56f-8e3cc4de4b1b"
                    }
                ],
                "version": "Thu Feb 17 00:00:00 UTC 2011",
                "status": "active",
                "experimental": false,
                "date": "2011-02-17T00:00:00+00:00",
                "publisher": "User ID: '3137' User name: 'redacted' User skill set: 'T1'",
                "lastReviewDate": "2011-02-17",
                "jurisdiction": [
                    {
                        "text": "England"
                    }
                ],
                "contact": [
                    {
                        "telecom": [
                            {
                                "value": "redacted"
                            }
                        ]
                    }
                ],
                "subjectType": [
                    "Patient"
                ],
                "item": [
                    {
                        "linkId": "8067b9b2-e604-4414-b56f-8e3cc4de4b1b",
                        "prefix": "40",
                        "text": "Is he breathing and conscious?",
                        "type": "choice",
                        "required": true,
                        "repeats": false,
                        "option": [
                            {
                                "valueString": "breathing AND conscious, Selected: true"
                            },
                            {
                                "valueString": "breathing but NOT conscious (includes current fitting), Selected: false"
                            },
                            {
                                "valueString": "NOT breathing, Selected: false"
                            },
                            {
                                "valueString": "choking now, Selected: false"
                            }
                        ]
                    }
                ]
            }
        },
        {
            "fullUrl": "urn:uuid:3fb462b4-2d5d-450d-9428-bfcb6b84d885",
            "resource": {
                "resourceType": "QuestionnaireResponse",
                "identifier": {
                    "value": "8067b9b2-e604-4414-b56f-8e3cc4de4b1b"
                },
                "questionnaire": {
                    "reference": "urn:uuid:2fd7deb2-0abc-4735-9501-b1d1d761285a"
                },
                "status": "completed",
                "subject": {
                    "reference": "urn:uuid:2acad963-34a4-41d6-a147-4802c53b4c3c"
                },
                "context": {
                    "reference": "urn:uuid:d5e1facb-b49f-419c-a64b-bf1081baca72"
                },
                "authored": "2011-02-17T00:00:00+00:00",
                "item": [
                    {
                        "linkId": "Tx220285",
                        "text": "Has he been bleeding very heavily IN THE LAST HOUR?",
                        "answer": [
                            {
                                "valueString": "an egg cupful or more from a wound"
                            }
                        ]
                    }
                ]
            }
        },
        {
            "fullUrl": "urn:uuid:2fd7deb2-0abc-4735-9501-b1d1d761285a",
            "resource": {
                "resourceType": "Questionnaire",
                "identifier": [
                    {
                        "value": "8067b9b2-e604-4414-b56f-8e3cc4de4b1b"
                    }
                ],
                "version": "Thu Feb 17 00:00:00 UTC 2011",
                "status": "active",
                "experimental": false,
                "date": "2011-02-17T00:00:00+00:00",
                "publisher": "User ID: '3137' User name: 'redacted' User skill set: 'T1'",
                "lastReviewDate": "2011-02-17",
                "jurisdiction": [
                    {
                        "text": "England"
                    }
                ],
                "contact": [
                    {
                        "telecom": [
                            {
                                "value": "redacted"
                            }
                        ]
                    }
                ],
                "subjectType": [
                    "Patient"
                ],
                "item": [
                    {
                        "linkId": "8067b9b2-e604-4414-b56f-8e3cc4de4b1b",
                        "prefix": "60",
                        "text": "Has he been bleeding very heavily IN THE LAST HOUR?",
                        "type": "choice",
                        "required": true,
                        "repeats": false,
                        "option": [
                            {
                                "valueString": "blood spurting from a wound, Selected: false"
                            },
                            {
                                "valueString": "an egg cupful or more of red blood from a body opening, Selected: false"
                            },
                            {
                                "valueString": "an egg cupful or more from a wound, Selected: true"
                            },
                            {
                                "valueString": "not sure, Selected: false"
                            },
                            {
                                "valueString": "no, Selected: false"
                            }
                        ]
                    }
                ]
            }
        },
        {
            "fullUrl": "urn:uuid:6390b3ce-7e40-4cf2-b2ff-7961fc4eaf4d",
            "resource": {
                "resourceType": "QuestionnaireResponse",
                "identifier": {
                    "value": "8067b9b2-e604-4414-b56f-8e3cc4de4b1b"
                },
                "questionnaire": {
                    "reference": "urn:uuid:b5298ef9-6d34-4657-b57b-6cb14c7fee37"
                },
                "status": "completed",
                "subject": {
                    "reference": "urn:uuid:2acad963-34a4-41d6-a147-4802c53b4c3c"
                },
                "context": {
                    "reference": "urn:uuid:d5e1facb-b49f-419c-a64b-bf1081baca72"
                },
                "authored": "2011-02-17T00:00:00+00:00",
                "item": [
                    {
                        "linkId": "Tx140109",
                        "text": "Is he fighting desperately for every breath?",
                        "answer": [
                            {
                                "valueString": "no"
                            }
                        ]
                    }
                ]
            }
        },
        {
            "fullUrl": "urn:uuid:b5298ef9-6d34-4657-b57b-6cb14c7fee37",
            "resource": {
                "resourceType": "Questionnaire",
                "identifier": [
                    {
                        "value": "8067b9b2-e604-4414-b56f-8e3cc4de4b1b"
                    }
                ],
                "version": "Thu Feb 17 00:00:00 UTC 2011",
                "status": "active",
                "experimental": false,
                "date": "2011-02-17T00:00:00+00:00",
                "publisher": "User ID: '3137' User name: 'redacted' User skill set: 'T1'",
                "lastReviewDate": "2011-02-17",
                "jurisdiction": [
                    {
                        "text": "England"
                    }
                ],
                "contact": [
                    {
                        "telecom": [
                            {
                                "value": "redacted"
                            }
                        ]
                    }
                ],
                "subjectType": [
                    "Patient"
                ],
                "item": [
                    {
                        "linkId": "8067b9b2-e604-4414-b56f-8e3cc4de4b1b",
                        "prefix": "20000",
                        "text": "Is he fighting desperately for every breath?",
                        "type": "choice",
                        "required": true,
                        "repeats": false,
                        "option": [
                            {
                                "valueString": "yes, Selected: false"
                            },
                            {
                                "valueString": "not sure, Selected: false"
                            },
                            {
                                "valueString": "no, Selected: true"
                            }
                        ]
                    }
                ]
            }
        },
        {
            "fullUrl": "urn:uuid:9e58a7d1-304b-41c9-b508-c9a17d697da7",
            "resource": {
                "resourceType": "QuestionnaireResponse",
                "identifier": {
                    "value": "8067b9b2-e604-4414-b56f-8e3cc4de4b1b"
                },
                "questionnaire": {
                    "reference": "urn:uuid:331dff2f-41a4-43e4-9006-36eab7121777"
                },
                "status": "completed",
                "subject": {
                    "reference": "urn:uuid:2acad963-34a4-41d6-a147-4802c53b4c3c"
                },
                "context": {
                    "reference": "urn:uuid:d5e1facb-b49f-419c-a64b-bf1081baca72"
                },
                "authored": "2011-02-17T00:00:00+00:00",
                "item": [
                    {
                        "linkId": "Tx220563",
                        "text": "Is he limp, floppy and/or unresponsive?",
                        "answer": [
                            {
                                "valueString": "no"
                            }
                        ]
                    }
                ]
            }
        },
        {
            "fullUrl": "urn:uuid:331dff2f-41a4-43e4-9006-36eab7121777",
            "resource": {
                "resourceType": "Questionnaire",
                "identifier": [
                    {
                        "value": "8067b9b2-e604-4414-b56f-8e3cc4de4b1b"
                    }
                ],
                "version": "Thu Feb 17 00:00:00 UTC 2011",
                "status": "active",
                "experimental": false,
                "date": "2011-02-17T00:00:00+00:00",
                "publisher": "User ID: '3137' User name: 'redacted' User skill set: 'T1'",
                "lastReviewDate": "2011-02-17",
                "jurisdiction": [
                    {
                        "text": "England"
                    }
                ],
                "contact": [
                    {
                        "telecom": [
                            {
                                "value": "redacted"
                            }
                        ]
                    }
                ],
                "subjectType": [
                    "Patient"
                ],
                "item": [
                    {
                        "linkId": "8067b9b2-e604-4414-b56f-8e3cc4de4b1b",
                        "prefix": "20400",
                        "text": "Is he limp, floppy and/or unresponsive?",
                        "type": "choice",
                        "required": true,
                        "repeats": false,
                        "option": [
                            {
                                "valueString": "yes, Selected: false"
                            },
                            {
                                "valueString": "not sure, Selected: false"
                            },
                            {
                                "valueString": "no, Selected: true"
                            }
                        ]
                    }
                ]
            }
        },
        {
            "fullUrl": "urn:uuid:fcb2cad7-13a9-46a4-ae73-3accf2658aa8",
            "resource": {
                "resourceType": "QuestionnaireResponse",
                "identifier": {
                    "value": "8067b9b2-e604-4414-b56f-8e3cc4de4b1b"
                },
                "questionnaire": {
                    "reference": "urn:uuid:21037625-ed92-451e-af54-ced8125ac5a0"
                },
                "status": "completed",
                "subject": {
                    "reference": "urn:uuid:2acad963-34a4-41d6-a147-4802c53b4c3c"
                },
                "context": {
                    "reference": "urn:uuid:d5e1facb-b49f-419c-a64b-bf1081baca72"
                },
                "authored": "2011-02-17T00:00:00+00:00",
                "item": [
                    {
                        "linkId": "Tx220561",
                        "text": "Is he warm to touch?",
                        "answer": [
                            {
                                "valueString": "yes"
                            }
                        ]
                    }
                ]
            }
        },
        {
            "fullUrl": "urn:uuid:21037625-ed92-451e-af54-ced8125ac5a0",
            "resource": {
                "resourceType": "Questionnaire",
                "identifier": [
                    {
                        "value": "8067b9b2-e604-4414-b56f-8e3cc4de4b1b"
                    }
                ],
                "version": "Thu Feb 17 00:00:00 UTC 2011",
                "status": "active",
                "experimental": false,
                "date": "2011-02-17T00:00:00+00:00",
                "publisher": "User ID: '3137' User name: 'redacted' User skill set: 'T1'",
                "lastReviewDate": "2011-02-17",
                "jurisdiction": [
                    {
                        "text": "England"
                    }
                ],
                "contact": [
                    {
                        "telecom": [
                            {
                                "value": "redacted"
                            }
                        ]
                    }
                ],
                "subjectType": [
                    "Patient"
                ],
                "item": [
                    {
                        "linkId": "8067b9b2-e604-4414-b56f-8e3cc4de4b1b",
                        "prefix": "20450",
                        "text": "Is he warm to touch?",
                        "type": "choice",
                        "required": true,
                        "repeats": false,
                        "option": [
                            {
                                "valueString": "yes, Selected: true"
                            },
                            {
                                "valueString": "not sure, Selected: false"
                            },
                            {
                                "valueString": "no, Selected: false"
                            },
                            {
                                "valueString": "not safe to touch, Selected: false"
                            }
                        ]
                    }
                ]
            }
        },
        {
            "fullUrl": "urn:uuid:4329d9c6-de63-463d-ae8c-8da2dc83383e",
            "resource": {
                "resourceType": "QuestionnaireResponse",
                "identifier": {
                    "value": "8067b9b2-e604-4414-b56f-8e3cc4de4b1b"
                },
                "questionnaire": {
                    "reference": "urn:uuid:ebf7b989-cf48-4f25-8604-bb4a9640fb16"
                },
                "status": "completed",
                "subject": {
                    "reference": "urn:uuid:2acad963-34a4-41d6-a147-4802c53b4c3c"
                },
                "context": {
                    "reference": "urn:uuid:d5e1facb-b49f-419c-a64b-bf1081baca72"
                },
                "authored": "2011-02-17T00:00:00+00:00",
                "item": [
                    {
                        "linkId": "Tx120019",
                        "text": "Was the injury caused by any of the following?",
                        "answer": [
                            {
                                "valueString": "no"
                            }
                        ]
                    }
                ]
            }
        },
        {
            "fullUrl": "urn:uuid:ebf7b989-cf48-4f25-8604-bb4a9640fb16",
            "resource": {
                "resourceType": "Questionnaire",
                "identifier": [
                    {
                        "value": "8067b9b2-e604-4414-b56f-8e3cc4de4b1b"
                    }
                ],
                "version": "Thu Feb 17 00:00:00 UTC 2011",
                "status": "active",
                "experimental": false,
                "date": "2011-02-17T00:00:00+00:00",
                "publisher": "User ID: '3137' User name: 'redacted' User skill set: 'T1'",
                "lastReviewDate": "2011-02-17",
                "jurisdiction": [
                    {
                        "text": "England"
                    }
                ],
                "contact": [
                    {
                        "telecom": [
                            {
                                "value": "redacted"
                            }
                        ]
                    }
                ],
                "subjectType": [
                    "Patient"
                ],
                "item": [
                    {
                        "linkId": "8067b9b2-e604-4414-b56f-8e3cc4de4b1b",
                        "prefix": "20800",
                        "text": "Was the injury caused by any of the following?",
                        "type": "choice",
                        "required": true,
                        "repeats": false,
                        "option": [
                            {
                                "valueString": "a gunshot, Selected: false"
                            },
                            {
                                "valueString": "a stabbing, Selected: false"
                            },
                            {
                                "valueString": "being ejected from a vehicle, Selected: false"
                            },
                            {
                                "valueString": "not sure, Selected: false"
                            },
                            {
                                "valueString": "no, Selected: true"
                            }
                        ]
                    }
                ]
            }
        },
        {
            "fullUrl": "urn:uuid:a7065a82-abbb-4bf5-8855-ebb36de8d472",
            "resource": {
                "resourceType": "QuestionnaireResponse",
                "identifier": {
                    "value": "8067b9b2-e604-4414-b56f-8e3cc4de4b1b"
                },
                "questionnaire": {
                    "reference": "urn:uuid:262e98c5-d6b3-4231-971a-57f0c47bb947"
                },
                "status": "completed",
                "subject": {
                    "reference": "urn:uuid:2acad963-34a4-41d6-a147-4802c53b4c3c"
                },
                "context": {
                    "reference": "urn:uuid:d5e1facb-b49f-419c-a64b-bf1081baca72"
                },
                "authored": "2011-02-17T00:00:00+00:00",
                "item": [
                    {
                        "linkId": "Tx220286",
                        "text": "DID THE INJURY INVOLVE ANY OF THE FOLLOWING?",
                        "answer": [
                            {
                                "valueString": "no"
                            }
                        ]
                    }
                ]
            }
        },
        {
            "fullUrl": "urn:uuid:262e98c5-d6b3-4231-971a-57f0c47bb947",
            "resource": {
                "resourceType": "Questionnaire",
                "identifier": [
                    {
                        "value": "8067b9b2-e604-4414-b56f-8e3cc4de4b1b"
                    }
                ],
                "version": "Thu Feb 17 00:00:00 UTC 2011",
                "status": "active",
                "experimental": false,
                "date": "2011-02-17T00:00:00+00:00",
                "publisher": "User ID: '3137' User name: 'redacted' User skill set: 'T1'",
                "lastReviewDate": "2011-02-17",
                "jurisdiction": [
                    {
                        "text": "England"
                    }
                ],
                "contact": [
                    {
                        "telecom": [
                            {
                                "value": "redacted"
                            }
                        ]
                    }
                ],
                "subjectType": [
                    "Patient"
                ],
                "item": [
                    {
                        "linkId": "8067b9b2-e604-4414-b56f-8e3cc4de4b1b",
                        "prefix": "23100",
                        "text": "DID THE INJURY INVOLVE ANY OF THE FOLLOWING?",
                        "type": "choice",
                        "required": true,
                        "repeats": false,
                        "option": [
                            {
                                "valueString": "a fall of 5 metres or more (specify), Selected: false"
                            },
                            {
                                "valueString": "multiple major injuries (specify), Selected: false"
                            },
                            {
                                "valueString": "major wound or amputation - not just involving a single finger or toe (specify), Selected: false"
                            },
                            {
                                "valueString": "being knocked over by a blast (specify), Selected: false"
                            },
                            {
                                "valueString": "not sure, Selected: false"
                            },
                            {
                                "valueString": "no, Selected: true"
                            }
                        ]
                    }
                ]
            }
        },
        {
            "fullUrl": "urn:uuid:1106f94d-cbc0-4e44-a88a-9a905e03a3d4",
            "resource": {
                "resourceType": "QuestionnaireResponse",
                "identifier": {
                    "value": "8067b9b2-e604-4414-b56f-8e3cc4de4b1b"
                },
                "questionnaire": {
                    "reference": "urn:uuid:ad47dbc7-b147-4e36-90a4-a388cb6c4012"
                },
                "status": "completed",
                "subject": {
                    "reference": "urn:uuid:2acad963-34a4-41d6-a147-4802c53b4c3c"
                },
                "context": {
                    "reference": "urn:uuid:d5e1facb-b49f-419c-a64b-bf1081baca72"
                },
                "authored": "2011-02-17T00:00:00+00:00",
                "item": [
                    {
                        "linkId": "Tx140159",
                        "text": "What is the reason for ending the assessment?",
                        "answer": [
                            {
                                "valueString": "transfer to a clinician"
                            }
                        ]
                    }
                ]
            }
        },
        {
            "fullUrl": "urn:uuid:ad47dbc7-b147-4e36-90a4-a388cb6c4012",
            "resource": {
                "resourceType": "Questionnaire",
                "identifier": [
                    {
                        "value": "8067b9b2-e604-4414-b56f-8e3cc4de4b1b"
                    }
                ],
                "version": "Thu Feb 17 00:00:00 UTC 2011",
                "status": "active",
                "experimental": false,
                "date": "2011-02-17T00:00:00+00:00",
                "publisher": "User ID: '3137' User name: 'redacted' User skill set: 'T1'",
                "lastReviewDate": "2011-02-17",
                "jurisdiction": [
                    {
                        "text": "England"
                    }
                ],
                "contact": [
                    {
                        "telecom": [
                            {
                                "value": "redacted"
                            }
                        ]
                    }
                ],
                "subjectType": [
                    "Patient"
                ],
                "item": [
                    {
                        "linkId": "8067b9b2-e604-4414-b56f-8e3cc4de4b1b",
                        "prefix": "0",
                        "text": "What is the reason for ending the assessment?",
                        "type": "choice",
                        "required": true,
                        "repeats": false,
                        "option": [
                            {
                                "valueString": "the phone line went dead, Selected: false"
                            },
                            {
                                "valueString": "the caller terminated the call (specify), Selected: false"
                            },
                            {
                                "valueString": "I terminated the call (specify), Selected: false"
                            },
                            {
                                "valueString": "triage not possible, Selected: false"
                            },
                            {
                                "valueString": "transfer to a clinician, Selected: true"
                            }
                        ]
                    }
                ]
            }
        },
        {
            "fullUrl": "urn:uuid:3f14e19a-37a5-4ebc-8e81-d083c18ec726",
            "resource": {
                "resourceType": "QuestionnaireResponse",
                "identifier": {
                    "value": "8067b9b2-e604-4414-b56f-8e3cc4de4b1b"
                },
                "questionnaire": {
                    "reference": "urn:uuid:9c25b6e5-b444-4598-af01-18307ccd51ef"
                },
                "status": "completed",
                "subject": {
                    "reference": "urn:uuid:2acad963-34a4-41d6-a147-4802c53b4c3c"
                },
                "context": {
                    "reference": "urn:uuid:d5e1facb-b49f-419c-a64b-bf1081baca72"
                },
                "authored": "2011-02-17T00:00:00+00:00",
                "item": [
                    {
                        "linkId": "Tx220286",
                        "text": "DID THE INJURY INVOLVE ANY OF THE FOLLOWING?",
                        "answer": [
                            {
                                "valueString": "no"
                            }
                        ]
                    }
                ]
            }
        },
        {
            "fullUrl": "urn:uuid:9c25b6e5-b444-4598-af01-18307ccd51ef",
            "resource": {
                "resourceType": "Questionnaire",
                "identifier": [
                    {
                        "value": "8067b9b2-e604-4414-b56f-8e3cc4de4b1b"
                    }
                ],
                "version": "Thu Feb 17 00:00:00 UTC 2011",
                "status": "active",
                "experimental": false,
                "date": "2011-02-17T00:00:00+00:00",
                "publisher": "User ID: '3137' User name: 'redacted' User skill set: 'T1'",
                "lastReviewDate": "2011-02-17",
                "jurisdiction": [
                    {
                        "text": "England"
                    }
                ],
                "contact": [
                    {
                        "telecom": [
                            {
                                "value": "redacted"
                            }
                        ]
                    }
                ],
                "subjectType": [
                    "Patient"
                ],
                "item": [
                    {
                        "linkId": "8067b9b2-e604-4414-b56f-8e3cc4de4b1b",
                        "prefix": "23100",
                        "text": "DID THE INJURY INVOLVE ANY OF THE FOLLOWING?",
                        "type": "choice",
                        "required": true,
                        "repeats": false,
                        "option": [
                            {
                                "valueString": "a fall of 5 metres or more (specify), Selected: false"
                            },
                            {
                                "valueString": "multiple major injuries (specify), Selected: false"
                            },
                            {
                                "valueString": "major wound or amputation - not just involving a single finger or toe (specify), Selected: false"
                            },
                            {
                                "valueString": "being knocked over by a blast (specify), Selected: false"
                            },
                            {
                                "valueString": "not sure, Selected: false"
                            },
                            {
                                "valueString": "no, Selected: true"
                            }
                        ]
                    }
                ]
            }
        },
        {
            "fullUrl": "urn:uuid:a3f2ca25-33d5-4814-ad03-ec9c22add58b",
            "resource": {
                "resourceType": "QuestionnaireResponse",
                "identifier": {
                    "value": "8067b9b2-e604-4414-b56f-8e3cc4de4b1b"
                },
                "questionnaire": {
                    "reference": "urn:uuid:40dc3074-ca6b-4d12-9956-9fd5e5099433"
                },
                "status": "completed",
                "subject": {
                    "reference": "urn:uuid:2acad963-34a4-41d6-a147-4802c53b4c3c"
                },
                "context": {
                    "reference": "urn:uuid:d5e1facb-b49f-419c-a64b-bf1081baca72"
                },
                "authored": "2011-02-17T00:00:00+00:00",
                "item": [
                    {
                        "linkId": "N/A",
                        "text": "Dispatch 19 minute ambulance"
                    }
                ]
            }
        },
        {
            "fullUrl": "urn:uuid:40dc3074-ca6b-4d12-9956-9fd5e5099433",
            "resource": {
                "resourceType": "Questionnaire",
                "identifier": [
                    {
                        "value": "8067b9b2-e604-4414-b56f-8e3cc4de4b1b"
                    }
                ],
                "version": "Thu Feb 17 00:00:00 UTC 2011",
                "status": "active",
                "experimental": false,
                "date": "2011-02-17T00:00:00+00:00",
                "publisher": "User ID: '3137' User name: 'redacted' User skill set: 'T1'",
                "lastReviewDate": "2011-02-17",
                "jurisdiction": [
                    {
                        "text": "England"
                    }
                ],
                "contact": [
                    {
                        "telecom": [
                            {
                                "value": "redacted"
                            }
                        ]
                    }
                ],
                "subjectType": [
                    "Patient"
                ],
                "item": [
                    {
                        "linkId": "8067b9b2-e604-4414-b56f-8e3cc4de4b1b",
                        "prefix": "24100",
                        "text": "Dispatch 19 minute ambulance",
                        "type": "choice",
                        "required": true,
                        "repeats": false,
                        "option": [
                            {
                                "valueString": ", Selected: false"
                            }
                        ]
                    }
                ]
            }
        },
        {
            "fullUrl": "urn:uuid:dfb4882e-6d3d-4914-ab01-22a0875fc53a",
            "resource": {
                "resourceType": "PractitionerRole",
                "practitioner": {
                    "reference": "urn:uuid:923ec583-eca7-4ad5-9271-a0ed6d6602cf"
                },
                "organization": {
                    "reference": "urn:uuid:e39efd4e-6cf1-4371-ad53-e07d890a48e6"
                },
                "code": [
                    {
                        "coding": [
                            {
                                "system": "2.16.840.1.113883.2.1.3.2.4.17.196",
                                "code": "T1",
                                "display": "Nurse Triage Practitioner"
                            }
                        ]
                    }
                ]
            }
        },
        {
            "fullUrl": "urn:uuid:e39efd4e-6cf1-4371-ad53-e07d890a48e6",
            "resource": {
                "resourceType": "Organization",
                "identifier": [
                    {
                        "value": "5L399"
                    }
                ],
                "name": "Medway NHS Foundation Trust"
            }
        },
        {
            "fullUrl": "urn:uuid:b37edf25-d2e1-4e91-a35e-717816c2ec10",
            "resource": {
                "resourceType": "PractitionerRole",
                "practitioner": {
                    "reference": "urn:uuid:cafab7a1-a05e-4c8a-8dc3-c492c5d92cdd"
                },
                "organization": {
                    "reference": "urn:uuid:32314ba7-3275-448c-ac14-cf1205ac2d4d"
                },
                "code": [
                    {
                        "coding": [
                            {
                                "system": "2.16.840.1.113883.2.1.3.2.4.17.196",
                                "code": "R0010",
                                "display": "Medical Director"
                            }
                        ]
                    }
                ]
            }
        },
        {
            "fullUrl": "urn:uuid:32314ba7-3275-448c-ac14-cf1205ac2d4d",
            "resource": {
                "resourceType": "Organization",
                "identifier": [
                    {
                        "value": "VDE232323"
                    }
                ],
                "name": "Medway South Out of Hours Centre"
            }
        },
        {
            "fullUrl": "urn:uuid:bda4ca0e-4b3e-46c2-a5e5-5b2aed09bea9",
            "resource": {
                "resourceType": "List",
                "status": "current",
                "mode": "working",
                "title": "111 Report List",
                "code": {
                    "coding": [
                        {
                            "system": "http://snomed.info/sct",
                            "code": "225390008",
                            "display": "Triage"
                        }
                    ]
                },
                "subject": {
                    "reference": "urn:uuid:2acad963-34a4-41d6-a147-4802c53b4c3c"
                },
                "encounter": {
                    "reference": "urn:uuid:d5e1facb-b49f-419c-a64b-bf1081baca72"
                },
                "date": "2020-11-23T09:11:14+00:00",
                "source": {
                    "reference": "Device/1"
                },
                "orderedBy": {
                    "coding": [
                        {
                            "system": "http://hl7.org/fhir/list-order",
                            "code": "event-date",
                            "display": "Sorted by Event Date"
                        }
                    ]
                },
                "entry": [
                    {
                        "item": {
                            "reference": "urn:uuid:996e49f6-1e04-44bd-a78d-ca170694a54c"
                        }
                    },
                    {
                        "item": {
                            "reference": "urn:uuid:923ec583-eca7-4ad5-9271-a0ed6d6602cf"
                        }
                    },
                    {
                        "item": {
                            "reference": "urn:uuid:5e7d82dd-1c10-4e3f-8c83-eaf84c60398c"
                        }
                    },
                    {
                        "item": {
                            "reference": "urn:uuid:903e9aa9-8526-4f4d-a1a8-a81162795280"
                        }
                    },
                    {
                        "item": {
                            "reference": "urn:uuid:65c8fd32-3ea2-4b51-bb35-878e04eacca4"
                        }
                    },
                    {
                        "item": {
                            "reference": "urn:uuid:d0edde54-3ba5-4e38-bf0f-6f0fddc604d3"
                        }
                    },
                    {
                        "item": {
                            "reference": "urn:uuid:32314ba7-3275-448c-ac14-cf1205ac2d4d"
                        }
                    },
                    {
                        "item": {
                            "reference": "urn:uuid:6ea6a04c-8b66-4aee-aa2d-53e107110f04"
                        }
                    },
                    {
                        "item": {
                            "reference": "urn:uuid:cafab7a1-a05e-4c8a-8dc3-c492c5d92cdd"
                        }
                    },
                    {
                        "item": {
                            "reference": "urn:uuid:6d4a0119-ee88-4576-b1a4-2526bb51b010"
                        }
                    },
                    {
                        "item": {
                            "reference": "urn:uuid:6d3e6798-9f14-4ec3-9c77-916c0690b062"
                        }
                    },
                    {
                        "item": {
                            "reference": "urn:uuid:e39efd4e-6cf1-4371-ad53-e07d890a48e6"
                        }
                    },
                    {
                        "item": {
                            "reference": "urn:uuid:5b828cda-fbd4-4084-870b-aaf483108231"
                        }
                    },
                    {
                        "item": {
                            "reference": "urn:uuid:b8f7d385-c5bc-4b85-9b96-303a198bf88b"
                        }
                    },
                    {
                        "item": {
                            "reference": "urn:uuid:fe6f431e-452c-4d94-83c6-cfbd0ff7313d"
                        }
                    },
                    {
                        "item": {
                            "reference": "urn:uuid:55580f71-382c-4985-8ea5-d16888ff3bff"
                        }
                    },
                    {
                        "item": {
                            "reference": "urn:uuid:1fbb4da4-a242-4aea-aada-2c5986fd02fe"
                        }
                    },
                    {
                        "item": {
                            "reference": "urn:uuid:20a73894-1294-4ea5-86bb-c393cef3920b"
                        }
                    },
                    {
                        "item": {
                            "reference": "urn:uuid:1511007e-7f08-45ed-9227-831b2a61cb19"
                        }
                    },
                    {
                        "item": {
                            "reference": "urn:uuid:aaa1221d-b348-4901-a73e-b7e592bba037"
                        }
                    },
                    {
                        "item": {
                            "reference": "urn:uuid:9c25b6e5-b444-4598-af01-18307ccd51ef"
                        }
                    },
                    {
                        "item": {
                            "reference": "urn:uuid:a3f2ca25-33d5-4814-ad03-ec9c22add58b"
                        }
                    },
                    {
                        "item": {
                            "reference": "urn:uuid:b5298ef9-6d34-4657-b57b-6cb14c7fee37"
                        }
                    },
                    {
                        "item": {
                            "reference": "urn:uuid:3b67bcb5-4820-4a8d-ad2d-57d54543c359"
                        }
                    },
                    {
                        "item": {
                            "reference": "urn:uuid:1106f94d-cbc0-4e44-a88a-9a905e03a3d4"
                        }
                    },
                    {
                        "item": {
                            "reference": "urn:uuid:61730399-2756-4551-89f2-34fb7661ff50"
                        }
                    },
                    {
                        "item": {
                            "reference": "urn:uuid:f3794058-9c8f-4d9f-8f50-ef03b2b070cd"
                        }
                    },
                    {
                        "item": {
                            "reference": "urn:uuid:ae82b5c0-5917-436e-9c48-f1325acc2c75"
                        }
                    },
                    {
                        "item": {
                            "reference": "urn:uuid:7ed816db-1dd5-4f8b-8b27-50d11c97f5c9"
                        }
                    },
                    {
                        "item": {
                            "reference": "urn:uuid:fdf181da-5670-4023-8fec-f1cf760698b2"
                        }
                    },
                    {
                        "item": {
                            "reference": "urn:uuid:74f64f79-6a8f-4837-8e9a-9b39661d5325"
                        }
                    },
                    {
                        "item": {
                            "reference": "urn:uuid:e69d6968-dd5e-498b-bf53-34f0d654d832"
                        }
                    },
                    {
                        "item": {
                            "reference": "urn:uuid:722f13ac-4f09-4c96-8724-35594b9e61ca"
                        }
                    },
                    {
                        "item": {
                            "reference": "urn:uuid:926bfa37-b007-423b-b48a-7e7a7e98cb69"
                        }
                    },
                    {
                        "item": {
                            "reference": "urn:uuid:40dc3074-ca6b-4d12-9956-9fd5e5099433"
                        }
                    },
                    {
                        "item": {
                            "reference": "urn:uuid:fcb2cad7-13a9-46a4-ae73-3accf2658aa8"
                        }
                    },
                    {
                        "item": {
                            "reference": "urn:uuid:defd23e4-0d81-419c-8e4e-0a7936f6c864"
                        }
                    },
                    {
                        "item": {
                            "reference": "urn:uuid:20a1aa4f-72f8-4954-b69e-74b0a1d0a869"
                        }
                    },
                    {
                        "item": {
                            "reference": "urn:uuid:aa151ffb-5cf7-4854-80ee-980bd73ba09f"
                        }
                    },
                    {
                        "item": {
                            "reference": "urn:uuid:fe9e8ba3-54fd-442e-896f-797de7b45e33"
                        }
                    },
                    {
                        "item": {
                            "reference": "urn:uuid:6390b3ce-7e40-4cf2-b2ff-7961fc4eaf4d"
                        }
                    },
                    {
                        "item": {
                            "reference": "urn:uuid:4329d9c6-de63-463d-ae8c-8da2dc83383e"
                        }
                    },
                    {
                        "item": {
                            "reference": "urn:uuid:e29fd0b4-63a3-4442-bf1a-e99e86d42a3b"
                        }
                    },
                    {
                        "item": {
                            "reference": "urn:uuid:2fd7deb2-0abc-4735-9501-b1d1d761285a"
                        }
                    },
                    {
                        "item": {
                            "reference": "urn:uuid:26218052-526f-415c-a8b8-9a6f5d728b52"
                        }
                    },
                    {
                        "item": {
                            "reference": "urn:uuid:449e4ea1-fa92-43b6-9ba1-e6637ac0d3cc"
                        }
                    },
                    {
                        "item": {
                            "reference": "urn:uuid:e0deac17-2352-40ab-b67a-48543762f6e0"
                        }
                    },
                    {
                        "item": {
                            "reference": "urn:uuid:3f14e19a-37a5-4ebc-8e81-d083c18ec726"
                        }
                    },
                    {
                        "item": {
                            "reference": "urn:uuid:ad47dbc7-b147-4e36-90a4-a388cb6c4012"
                        }
                    },
                    {
                        "item": {
                            "reference": "urn:uuid:3fb462b4-2d5d-450d-9428-bfcb6b84d885"
                        }
                    },
                    {
                        "item": {
                            "reference": "urn:uuid:346036b1-54fc-413a-ba4c-e83bcd0300df"
                        }
                    },
                    {
                        "item": {
                            "reference": "urn:uuid:3c7d9cbd-cab8-4c49-94af-1ef434052a7a"
                        }
                    },
                    {
                        "item": {
                            "reference": "urn:uuid:262e98c5-d6b3-4231-971a-57f0c47bb947"
                        }
                    },
                    {
                        "item": {
                            "reference": "urn:uuid:21037625-ed92-451e-af54-ced8125ac5a0"
                        }
                    },
                    {
                        "item": {
                            "reference": "urn:uuid:331dff2f-41a4-43e4-9006-36eab7121777"
                        }
                    },
                    {
                        "item": {
                            "reference": "urn:uuid:9e58a7d1-304b-41c9-b508-c9a17d697da7"
                        }
                    },
                    {
                        "item": {
                            "reference": "urn:uuid:aa4a4f93-640a-4616-876b-0e4ad1454cc2"
                        }
                    },
                    {
                        "item": {
                            "reference": "urn:uuid:ebf7b989-cf48-4f25-8604-bb4a9640fb16"
                        }
                    },
                    {
                        "item": {
                            "reference": "urn:uuid:a7065a82-abbb-4bf5-8855-ebb36de8d472"
                        }
                    },
                    {
                        "item": {
                            "reference": "urn:uuid:68accb52-3178-4b56-aef4-15e77b2ea527"
                        }
                    },
                    {
                        "item": {
                            "reference": "urn:uuid:7da5c37c-4f73-42cb-bc0a-b6fc8c3973ec"
                        }
                    },
                    {
                        "item": {
                            "reference": "urn:uuid:128a404d-7554-4bf6-afff-0d7c05a49a31"
                        }
                    }
                ]
            }
        }
    ]
}