{
  "resourceType": "Bundle",
  "identifier": {
    "type": {
      "text": "ClinicalDocument VersionNumber"
    },
    "value": "1"
  },
  "type": "message",
  "entry": [ {
    "fullUrl": "urn:uuid:7AEFFED7-78AF-4940-9EE2-5FAA3920ECFE",
    "resource": {
      "resourceType": "MessageHeader",
      "id": "7AEFFED7-78AF-4940-9EE2-5FAA3920ECFE",
      "event": {
        "system": "https://fhir.nhs.uk/STU3/CodeSystem/EventType-1",
        "code": "referral-1",
        "display": "Referral"
      },
      "destination": [ {
        "endpoint": "urn:nhs-uk:addressing:ods:RSHSO14A:DOSServiceID:2000006423"
      } ],
      "timestamp": "2021-04-06T11:33:35.000+00:00",
      "source": {
        "name": "NHS 111 Adaptor",
        "endpoint": "http://localhost:8080/report"
      },
      "reason": {
        "coding": [ {
          "system": "urn:nhs-itk:ns:201005:interaction",
          "code": "urn:nhs-itk:interaction:primaryEmergencyDepartmentRecipientNHS111CDADocument-v2-0"
        } ]
      }
    }
  }, {
    "fullUrl": "urn:uuid:4073fef6-ee62-4a07-96d0-390a19cd4544",
    "resource": {
      "resourceType": "Encounter",
      "id": "4073fef6-ee62-4a07-96d0-390a19cd4544",
      "identifier": [ {
        "system": "2.16.840.1.113883.2.1.3.2.4.18.34",
        "value": "029EE79C-BBD3-478A-93EE-979CB300212E"
      }, {
        "system": "2.16.840.1.113883.2.1.3.2.4.18.35",
        "value": "59132"
      }, {
        "system": "2.16.840.1.113883.2.1.3.2.4.18.49",
        "value": "029EE79C-BBD3-478A-93EE-979CB300212E"
      } ],
      "status": "finished",
      "type": [ {
        "text": "111 Encounter Referral"
      } ],
      "subject": {
        "reference": "urn:uuid:2ee69256-43c3-4a40-af41-4e5e53be5043"
      },
      "participant": [ {
        "type": [ {
          "coding": [ {
            "system": "http://hl7.org/fhir/ValueSet/encounter-participant-type",
            "code": "PPRF",
            "display": "Author"
          } ]
        } ],
        "individual": {
          "reference": "urn:uuid:3227f6e8-dd25-42ce-8e07-1bfdf0cf6547"
        }
      }, {
        "type": [ {
          "coding": [ {
            "system": "http://hl7.org/fhir/ValueSet/encounter-participant-type",
            "code": "ATND",
            "display": "Responsible Party"
          } ]
        } ],
        "individual": {
          "reference": "urn:uuid:8da0be23-54c7-427d-aeb2-1a023635f2c4"
        }
      } ],
      "period": {
        "start": "2021-04-06T11:33:35+00:00"
      },
      "location": [ {
        "location": {
          "reference": "urn:uuid:5aa66902-adac-45f7-8aed-76e0e725f947"
        },
        "status": "active"
      }, {
        "location": {
          "reference": "urn:uuid:ef5619c5-bbc3-4ee9-b6ee-fafb37334a0c"
        },
        "status": "completed"
      } ],
      "serviceProvider": {
        "reference": "urn:uuid:89507367-1afb-45ac-bc2d-28487057e427"
      }
    }
  }, {
    "fullUrl": "urn:uuid:89507367-1afb-45ac-bc2d-28487057e427",
    "resource": {
      "resourceType": "Organization",
      "id": "89507367-1afb-45ac-bc2d-28487057e427",
      "active": true,
      "type": [ {
        "text": "CST"
      } ],
      "name": "SCAS111"
    }
  }, {
    "fullUrl": "urn:uuid:3227f6e8-dd25-42ce-8e07-1bfdf0cf6547",
    "resource": {
      "resourceType": "Practitioner",
      "id": "3227f6e8-dd25-42ce-8e07-1bfdf0cf6547",
      "active": true,
      "name": [ {
        "use": "official",
        "family": "McDonald",
        "given": [ "Denzle" ]
      } ]
    }
  }, {
    "fullUrl": "urn:uuid:8da0be23-54c7-427d-aeb2-1a023635f2c4",
    "resource": {
      "resourceType": "Practitioner",
      "id": "8da0be23-54c7-427d-aeb2-1a023635f2c4",
      "active": true,
      "name": [ {
        "use": "official",
        "family": "Black",
        "given": [ "John" ]
      } ]
    }
  }, {
    "fullUrl": "urn:uuid:5aa66902-adac-45f7-8aed-76e0e725f947",
    "resource": {
      "resourceType": "Location",
      "id": "5aa66902-adac-45f7-8aed-76e0e725f947",
      "managingOrganization": {
        "reference": "urn:uuid:629345b6-1610-4898-b484-8a0d522f592c"
      }
    }
  }, {
    "fullUrl": "urn:uuid:629345b6-1610-4898-b484-8a0d522f592c",
    "resource": {
      "resourceType": "Organization",
      "id": "629345b6-1610-4898-b484-8a0d522f592c",
      "identifier": [ {
        "value": "J82633"
      } ],
      "type": [ {
        "text": "GP Practice"
      } ],
      "name": "The Riverside Partnership ( Riverside Kelsey)",
      "telecom": [ {
        "system": "phone",
        "value": "tel:01730892412",
        "use": "work"
      } ],
      "address": [ {
        "use": "work",
        "line": [ "Riverside Kelsey Surgery", "75 Station Road", "Liss", "Hampshire" ],
        "postalCode": "GU33 7AD"
      } ]
    }
  }, {
    "fullUrl": "urn:uuid:ef5619c5-bbc3-4ee9-b6ee-fafb37334a0c",
    "resource": {
      "resourceType": "Location",
      "id": "ef5619c5-bbc3-4ee9-b6ee-fafb37334a0c",
      "name": "Incident Location",
      "address": {
        "type": "physical",
        "line": [ "Hampshire Partnership NHS Trust", "Tatchbury Mount Hospital Horseshoe Drive", "Calmore", "Southampton", "Hampshire" ],
        "postalCode": "SO40 2RZ"
      }
    }
  }, {
    "fullUrl": "urn:uuid:2ee69256-43c3-4a40-af41-4e5e53be5043",
    "resource": {
      "resourceType": "Patient",
      "id": "2ee69256-43c3-4a40-af41-4e5e53be5043",
      "identifier": [ {
        "extension": [ {
          "url": "https://fhir.hl7.org.uk/STU3/StructureDefinition/Extension-CareConnect-NHSNumberVerificationStatus-1",
          "valueCodeableConcept": {
            "coding": [ {
              "system": "https://fhir.hl7.org.uk/STU3/StructureDefinition/Extension-CareConnect-NHSNumberVerificationStatus-1",
              "code": "01"
            } ]
          }
        } ],
        "system": "https://fhir.nhs.uk/Id/nhs-number",
        "value": "9990004951"
      } ],
      "active": true,
      "name": [ {
        "use": "official",
        "family": "Xxtestpatientdfae",
        "given": [ "Btl-Donotuse" ]
      } ],
      "telecom": [ {
        "system": "phone",
        "value": "tel:07948625625",
        "use": "home"
      }, {
        "system": "phone",
        "value": "tel:07948625625"
      } ],
      "gender": "female",
      "birthDate": "2015-04-01",
      "address": [ {
        "use": "home",
        "line": [ "Hampshire Partnership NHS Trust", "Tatchbury Mount Hospital Horseshoe Drive", "Calmore", "Southampton", "Hampshire" ],
        "postalCode": "SO40 2RZ"
      } ],
      "generalPractitioner": [ {
        "reference": "urn:uuid:f6621f88-f468-4767-b17d-8e0b8360db1b"
      } ]
    }
  }, {
    "fullUrl": "urn:uuid:f6621f88-f468-4767-b17d-8e0b8360db1b",
    "resource": {
      "resourceType": "Organization",
      "id": "f6621f88-f468-4767-b17d-8e0b8360db1b",
      "identifier": [ {
        "value": "J82633"
      } ],
      "type": [ {
        "text": "GP Practice"
      } ],
      "name": "The Riverside Partnership ( Riverside Kelsey)",
      "telecom": [ {
        "system": "phone",
        "value": "tel:01730892412",
        "use": "work"
      } ],
      "address": [ {
        "use": "work",
        "line": [ "Riverside Kelsey Surgery", "75 Station Road", "Liss", "Hampshire" ],
        "postalCode": "GU33 7AD"
      } ]
    }
  }, {
    "fullUrl": "urn:uuid:686b279c-75e0-4281-bd16-e289177f32a4",
    "resource": {
      "resourceType": "HealthcareService",
      "id": "686b279c-75e0-4281-bd16-e289177f32a4",
      "active": true,
      "providedBy": {
        "reference": "urn:uuid:5240a1d8-eaa0-4369-934f-70eba70956ab"
      },
      "location": [ {
        "reference": "urn:uuid:054958e8-2970-4585-b0e5-018b34bf2d42"
      } ],
      "name": "Urgent Treatment Centre (GP led), Royal South Hants Hospital"
    }
  }, {
    "fullUrl": "urn:uuid:054958e8-2970-4585-b0e5-018b34bf2d42",
    "resource": {
      "resourceType": "Location",
      "id": "054958e8-2970-4585-b0e5-018b34bf2d42",
      "managingOrganization": {
        "reference": "urn:uuid:5240a1d8-eaa0-4369-934f-70eba70956ab"
      }
    }
  }, {
    "fullUrl": "urn:uuid:5240a1d8-eaa0-4369-934f-70eba70956ab",
    "resource": {
      "resourceType": "Organization",
      "id": "5240a1d8-eaa0-4369-934f-70eba70956ab",
      "identifier": [ {
        "value": "RSHSO14A"
      } ],
      "type": [ {
        "coding": [ {
          "code": "PRCP",
          "display": "Urgent Treatment Centre (GP led), Royal South Hants Hospital"
        } ]
      } ],
      "name": "Urgent Treatment Centre (GP led), Royal South Hants Hospital"
    }
  }, {
    "fullUrl": "urn:uuid:8f580321-92bf-4eeb-9f09-620601ea7fcf",
    "resource": {
      "resourceType": "ReferralRequest",
      "id": "8f580321-92bf-4eeb-9f09-620601ea7fcf",
      "status": "active",
      "intent": "plan",
      "priority": "routine",
      "subject": {
        "reference": "urn:uuid:2ee69256-43c3-4a40-af41-4e5e53be5043"
      },
      "context": {
        "reference": "urn:uuid:4073fef6-ee62-4a07-96d0-390a19cd4544"
      },
      "occurrencePeriod": {
        "start": "2021-10-11T06:41:46+00:00",
        "end": "2021-10-11T07:41:46+00:00"
      },
      "authoredOn": "2021-04-06T11:33:27+00:00",
      "requester": {
        "agent": {
          "reference": "urn:uuid:dab92622-9fde-432e-bcbc-d846c64c63bb"
        },
        "onBehalfOf": {
          "reference": "urn:uuid:89507367-1afb-45ac-bc2d-28487057e427"
        }
      },
      "recipient": [ {
        "reference": "urn:uuid:686b279c-75e0-4281-bd16-e289177f32a4"
      } ],
      "reasonReference": [ {
        "reference": "urn:uuid:7880ff7f-8a97-4c35-b43b-f74ccfc4c3eb"
      } ],
      "supportingInfo": [ {
        "reference": "urn:uuid:83dada79-67b1-4a7f-bc5c-b7c4c24e2d0b"
      } ]
    }
  }, {
    "fullUrl": "urn:uuid:83dada79-67b1-4a7f-bc5c-b7c4c24e2d0b",
    "resource": {
      "resourceType": "ProcedureRequest",
      "id": "83dada79-67b1-4a7f-bc5c-b7c4c24e2d0b",
      "status": "active",
      "intent": "plan",
      "priority": "routine",
      "doNotPerform": false,
      "code": {
        "coding": [ {
          "system": "2.16.840.1.113883.2.1.3.2.4.17.325",
          "code": "Dx06",
          "display": "To contact a local service within 6 hours"
        } ]
      },
      "subject": {
        "reference": "urn:uuid:2ee69256-43c3-4a40-af41-4e5e53be5043"
      },
      "occurrencePeriod": {
        "start": "2021-10-11T06:41:46+00:00",
        "end": "2021-10-11T07:41:46+00:00"
      },
      "reasonReference": [ {
        "reference": "urn:uuid:7880ff7f-8a97-4c35-b43b-f74ccfc4c3eb"
      } ]
    }
  }, {
    "fullUrl": "urn:uuid:5fe313c7-a9ba-41ec-9aba-9847be55699b",
    "resource": {
      "resourceType": "Composition",
      "id": "5fe313c7-a9ba-41ec-9aba-9847be55699b",
      "identifier": {
        "use": "usual",
        "value": "A8E3FB32-6805-4191-B071-EA540A9318CD"
      },
      "status": "final",
      "type": {
        "coding": [ {
          "system": "http://snomed.info/sct",
          "code": "371531000",
          "display": "Report of clinical encounter (record artifact)"
        } ]
      },
      "subject": {
        "reference": "urn:uuid:2ee69256-43c3-4a40-af41-4e5e53be5043"
      },
      "encounter": {
        "reference": "urn:uuid:4073fef6-ee62-4a07-96d0-390a19cd4544"
      },
      "date": "2021-10-11T06:41:46+00:00",
      "author": [ {
        "reference": "urn:uuid:3227f6e8-dd25-42ce-8e07-1bfdf0cf6547"
      } ],
      "title": "111 Report",
      "confidentiality": "N",
      "section": [ {
        "section": [ {
          "title": "Patient's Reported Condition",
          "text": {
            "status": "generated",
            "div": "<div xmlns=\"http://www.w3.org/1999/xhtml\">&lt;content&gt;Pharmacy ITK Testing&lt;/content&gt;\n                                                    &lt;br/&gt;</div>"
          }
        }, {
          "title": "Pathways Disposition",
          "text": {
            "status": "generated",
            "div": "<div xmlns=\"http://www.w3.org/1999/xhtml\">To contact a local service within 6 hours (Dx06)                                         &lt;br/&gt;\n                                                    &lt;br/&gt;                                         Selected service: Urgent Treatment Centre (GP led), Royal South Hant&lt;br/&gt;</div>"
          }
        }, {
          "title": "Consultation Summary",
          "text": {
            "status": "generated",
            "div": "<div xmlns=\"http://www.w3.org/1999/xhtml\">Illness&lt;br/&gt;Warm to touch&lt;br/&gt;Nausea without vomiting&lt;br/&gt;Abdominal pain also present&lt;br/&gt;Moderately severe pain&lt;br/&gt;Flank pain&lt;br/&gt;Fever at time of assessment or in last 12 hours&lt;br/&gt;</div>"
          }
        }, {
          "title": "Pathways Assessment",
          "text": {
            "status": "generated",
            "div": "<div xmlns=\"http://www.w3.org/1999/xhtml\">An injury or health problem was the reason for the contact.&lt;br/&gt;Heavy bleeding had not occurred in the previous 30 minutes.&lt;br/&gt;An illness or health problem was the main problem.&lt;br/&gt;User Comments: Pharmacy ITK Testing&lt;br/&gt;The individual was not fighting for breath.&lt;br/&gt;The main reason for the contact was not an allergic reaction, chest/upper back pain, recent fit/seizure, suicide attempt, new confusion or suspected stroke.&lt;br/&gt;The main reason for contact was not declared diabetic hypo/hyperglycaemia or ICD shock.&lt;br/&gt;The skin on the torso felt normal, warm or hot.&lt;br/&gt;Pathway selected - Vomiting and/or Nausea&lt;br/&gt;The individual had not vomited.&lt;br/&gt;The individual did not also have diarrhoea.&lt;br/&gt;The symptoms did not follow drinking alcohol.&lt;br/&gt;Abdominal pain was also present.&lt;br/&gt;The pain interfered with normal activity.&lt;br/&gt;The individual was able to carry out most or all normal activities.&lt;br/&gt;The individual had not ingested a harmful or toxic substance.&lt;br/&gt;There had been no black and tarry or red/maroon bowel motions.&lt;br/&gt;There was no new or worsening confusion.&lt;br/&gt;Breathing harder or faster when doing nothing was not described.&lt;br/&gt;There was no new shoulder tip pain or pain in the lower right abdomen.&lt;br/&gt;The individual had not been in constant pain for 4 hours or more.&lt;br/&gt;There was no previous history of diabetes.&lt;br/&gt;There was flank pain.&lt;br/&gt;There was a fever at the time of assessment or within the previous 12 hours.&lt;br/&gt;There was no new, widespread, red rash.&lt;br/&gt;Instructions given were: The individual needs to contact a local service within 6 hours.&lt;br/&gt;Directory of Services referral: Urgent Treatment Centre (GP led), Royal South Hants Hospital&lt;br/&gt;</div>"
          }
        }, {
          "title": "Advice Given",
          "text": {
            "status": "generated",
            "div": "<div xmlns=\"http://www.w3.org/1999/xhtml\">I will arrange for a clinician to contact the individual. I need to ask some further questions in order to determine the best way to do this.&lt;br/&gt;If there are any new symptoms, or if the condition gets worse, changes or you have any other concerns, call us back.&lt;br/&gt;\n                                                    &lt;br/&gt;</div>"
          }
        }, {
          "title": "Information And Advice Given"
        }, {
          "title": "Disposition",
          "text": {
            "status": "generated",
            "div": "<div xmlns=\"http://www.w3.org/1999/xhtml\">&lt;content&gt;To contact a local service within 6 hours&lt;br/&gt;\n                                                    &lt;/content&gt;\n                                                    &lt;br/&gt;\n                                                    &lt;br/&gt;</div>"
          }
        } ]
      }, {
        "title": "CarePlan",
        "entry": [ {
          "reference": "urn:uuid:93b1903c-d5fb-4e2e-80c2-b7e3f58bc15d"
        } ]
      }, {
        "title": "ReferralRequest",
        "entry": [ {
          "reference": "urn:uuid:8f580321-92bf-4eeb-9f09-620601ea7fcf"
        } ]
      }, {
        "title": "QuestionnaireResponse",
        "entry": [ {
          "reference": "urn:uuid:39998a77-2930-41d2-a42d-a335fb7780fc"
        } ]
      }, {
        "title": "QuestionnaireResponse",
        "entry": [ {
          "reference": "urn:uuid:bf57519b-5290-40d9-8d44-770995c7d528"
        } ]
      }, {
        "title": "QuestionnaireResponse",
        "entry": [ {
          "reference": "urn:uuid:2c170836-c75c-45a4-a6d1-eaeb2320fb18"
        } ]
      }, {
        "title": "QuestionnaireResponse",
        "entry": [ {
          "reference": "urn:uuid:7586ba84-a1f0-45bf-b2c9-61f98053ffe6"
        } ]
      }, {
        "title": "QuestionnaireResponse",
        "entry": [ {
          "reference": "urn:uuid:6c2c3e94-4b40-4e37-9c83-07114879ee82"
        } ]
      }, {
        "title": "QuestionnaireResponse",
        "entry": [ {
          "reference": "urn:uuid:1844d675-646b-4550-a347-05dcb285966b"
        } ]
      }, {
        "title": "QuestionnaireResponse",
        "entry": [ {
          "reference": "urn:uuid:49d07acc-e7c6-4f5e-8021-6fdccc3e3fe9"
        } ]
      }, {
        "title": "QuestionnaireResponse",
        "entry": [ {
          "reference": "urn:uuid:55954440-a7d4-4d5b-83d4-cbab864e94df"
        } ]
      }, {
        "title": "QuestionnaireResponse",
        "entry": [ {
          "reference": "urn:uuid:78a5df8a-2057-4b9a-a884-4b5a62f17f9a"
        } ]
      }, {
        "title": "QuestionnaireResponse",
        "entry": [ {
          "reference": "urn:uuid:a9f55220-af59-4d72-8fd9-ea70f7e5eefa"
        } ]
      }, {
        "title": "QuestionnaireResponse",
        "entry": [ {
          "reference": "urn:uuid:2639e8d5-4864-4efb-8d78-bc465d4e35a6"
        } ]
      }, {
        "title": "QuestionnaireResponse",
        "entry": [ {
          "reference": "urn:uuid:26286c21-2523-4854-bbc3-61b76064c6ee"
        } ]
      }, {
        "title": "QuestionnaireResponse",
        "entry": [ {
          "reference": "urn:uuid:ddda1436-4f52-4a15-8ea4-c1e135dc15dc"
        } ]
      }, {
        "title": "QuestionnaireResponse",
        "entry": [ {
          "reference": "urn:uuid:8aafd6d9-9734-4116-b71f-2684589dc889"
        } ]
      }, {
        "title": "QuestionnaireResponse",
        "entry": [ {
          "reference": "urn:uuid:3035a74f-281b-4201-866d-725259697b9c"
        } ]
      }, {
        "title": "QuestionnaireResponse",
        "entry": [ {
          "reference": "urn:uuid:a55c4863-ddec-4f86-bf36-8c95f18487c2"
        } ]
      }, {
        "title": "QuestionnaireResponse",
        "entry": [ {
          "reference": "urn:uuid:9410e9ce-ac39-4f63-84cb-73a9bfc69611"
        } ]
      }, {
        "title": "QuestionnaireResponse",
        "entry": [ {
          "reference": "urn:uuid:93cef408-56dc-4172-81e5-ff03a7eb3855"
        } ]
      }, {
        "title": "QuestionnaireResponse",
        "entry": [ {
          "reference": "urn:uuid:d2174b9f-b6b8-4996-ad65-bde803583623"
        } ]
      }, {
        "title": "QuestionnaireResponse",
        "entry": [ {
          "reference": "urn:uuid:cc6e0b0b-825b-4155-b43e-5da09a32fa78"
        } ]
      }, {
        "title": "QuestionnaireResponse",
        "entry": [ {
          "reference": "urn:uuid:d014d9ad-63fb-4653-9d4b-6d97df15161b"
        } ]
      }, {
        "title": "QuestionnaireResponse",
        "entry": [ {
          "reference": "urn:uuid:1303ccab-1647-4838-bfcb-14c2af278763"
        } ]
      }, {
        "title": "QuestionnaireResponse",
        "entry": [ {
          "reference": "urn:uuid:9c1f214e-52dd-4f08-b0de-dd80e66a506a"
        } ]
      }, {
        "title": "QuestionnaireResponse",
        "entry": [ {
          "reference": "urn:uuid:0b491558-ce03-40cc-8860-4cfd4d5af403"
        } ]
      }, {
        "title": "QuestionnaireResponse",
        "entry": [ {
          "reference": "urn:uuid:ed558683-5039-4425-ab9b-505fc1e2e84a"
        } ]
      }, {
        "title": "QuestionnaireResponse",
        "entry": [ {
          "reference": "urn:uuid:c6ee1def-8b79-4407-9a85-fc5216af1d8a"
        } ]
      }, {
        "title": "QuestionnaireResponse",
        "entry": [ {
          "reference": "urn:uuid:1b3e0c8b-6910-4d25-ba71-5c8223ba7574"
        } ]
      }, {
        "title": "QuestionnaireResponse",
        "entry": [ {
          "reference": "urn:uuid:d291a7e0-0e13-480a-b87d-fbfb9ab7046c"
        } ]
      }, {
        "title": "QuestionnaireResponse",
        "entry": [ {
          "reference": "urn:uuid:a3e2cd1d-1b48-4085-88f8-b7a062cc1b47"
        } ]
      }, {
        "title": "QuestionnaireResponse",
        "entry": [ {
          "reference": "urn:uuid:7a49676b-c515-4b46-8be0-ac7f42d58451"
        } ]
      }, {
        "title": "QuestionnaireResponse",
        "entry": [ {
          "reference": "urn:uuid:b1929a48-5cf6-4ab3-afbd-fc93592fbf22"
        } ]
      }, {
        "title": "QuestionnaireResponse",
        "entry": [ {
          "reference": "urn:uuid:8f757cce-b8e5-4c57-a906-5560fe872626"
        } ]
      }, {
        "title": "QuestionnaireResponse",
        "entry": [ {
          "reference": "urn:uuid:14706a54-a3de-476e-a645-0da914907cd6"
        } ]
      }, {
        "title": "QuestionnaireResponse",
        "entry": [ {
          "reference": "urn:uuid:93e2ab51-2991-478d-aae7-02caf1a83d3c"
        } ]
      }, {
        "title": "QuestionnaireResponse",
        "entry": [ {
          "reference": "urn:uuid:ae05c68c-5dec-48a5-b75b-d59c0c5c2c81"
        } ]
      }, {
        "title": "QuestionnaireResponse",
        "entry": [ {
          "reference": "urn:uuid:dd90046a-ed2c-492a-84c3-a05cc8534dad"
        } ]
      }, {
        "title": "QuestionnaireResponse",
        "entry": [ {
          "reference": "urn:uuid:776d9971-5ce7-4224-a1af-ed2ea3d433f8"
        } ]
      }, {
        "title": "QuestionnaireResponse",
        "entry": [ {
          "reference": "urn:uuid:7680ce2f-6173-4015-a6c1-508d41325de4"
        } ]
      }, {
        "title": "QuestionnaireResponse",
        "entry": [ {
          "reference": "urn:uuid:23711fab-e2f9-4cf9-974d-170507199231"
        } ]
      }, {
        "title": "QuestionnaireResponse",
        "entry": [ {
          "reference": "urn:uuid:5600d718-00b5-4f20-8bab-ed318e54ebb1"
        } ]
      }, {
        "title": "QuestionnaireResponse",
        "entry": [ {
          "reference": "urn:uuid:e43d5fd3-5b87-453c-9a8a-b6e3ef2cf965"
        } ]
      }, {
        "title": "QuestionnaireResponse",
        "entry": [ {
          "reference": "urn:uuid:becc5a73-8655-40da-83de-24485e2fc639"
        } ]
      }, {
        "title": "QuestionnaireResponse",
        "entry": [ {
          "reference": "urn:uuid:ab914ef4-c49c-46fa-b539-ee2f4e363283"
        } ]
      }, {
        "title": "QuestionnaireResponse",
        "entry": [ {
          "reference": "urn:uuid:2d93303c-d529-46dd-b1bc-53b7513a222f"
        } ]
      }, {
        "title": "QuestionnaireResponse",
        "entry": [ {
          "reference": "urn:uuid:c5aa4406-2011-4809-aab3-5ebd26acd88b"
        } ]
      }, {
        "title": "QuestionnaireResponse",
        "entry": [ {
          "reference": "urn:uuid:c80cd05b-6f52-408d-8141-da4f217ccded"
        } ]
      }, {
        "title": "QuestionnaireResponse",
        "entry": [ {
          "reference": "urn:uuid:0deae281-489c-4187-9536-89b3c6c7032c"
        } ]
      }, {
        "title": "QuestionnaireResponse",
        "entry": [ {
          "reference": "urn:uuid:3a6334f6-5620-483d-b1fa-44282422fea8"
        } ]
      }, {
        "title": "QuestionnaireResponse",
        "entry": [ {
          "reference": "urn:uuid:7627d42b-20e7-4b75-9ad1-8c5ddc6c9b1c"
        } ]
      }, {
        "title": "QuestionnaireResponse",
        "entry": [ {
          "reference": "urn:uuid:075a2ee7-b139-4748-ac27-a6cbb34ce94c"
        } ]
      }, {
        "title": "QuestionnaireResponse",
        "entry": [ {
          "reference": "urn:uuid:cf79fb4d-a74e-438c-8983-14ee9137badd"
        } ]
      }, {
        "title": "QuestionnaireResponse",
        "entry": [ {
          "reference": "urn:uuid:e25320e5-c6b0-4fc7-bd47-d29c1701c048"
        } ]
      }, {
        "title": "QuestionnaireResponse",
        "entry": [ {
          "reference": "urn:uuid:2cbbb0d6-0358-487c-aa78-3c6ceae8f10a"
        } ]
      }, {
        "title": "QuestionnaireResponse",
        "entry": [ {
          "reference": "urn:uuid:cf87da14-0b84-4044-af18-fa20d45c7515"
        } ]
      }, {
        "title": "QuestionnaireResponse",
        "entry": [ {
          "reference": "urn:uuid:5c217342-17f8-4b76-b0fb-52264f9b7deb"
        } ]
      }, {
        "title": "QuestionnaireResponse",
        "entry": [ {
          "reference": "urn:uuid:22de08d3-7e44-48ca-9424-518153aac26e"
        } ]
      }, {
        "title": "QuestionnaireResponse",
        "entry": [ {
          "reference": "urn:uuid:53e3209a-54de-471d-a190-9427ee97705a"
        } ]
      }, {
        "title": "QuestionnaireResponse",
        "entry": [ {
          "reference": "urn:uuid:30eeb737-21a2-4639-8864-29ef0573e88c"
        } ]
      }, {
        "title": "QuestionnaireResponse",
        "entry": [ {
          "reference": "urn:uuid:97b905bb-ad0d-496a-a0dd-1acd08221946"
        } ]
      }, {
        "title": "QuestionnaireResponse",
        "entry": [ {
          "reference": "urn:uuid:d160d83c-f288-4002-92e7-02905b8ac0cd"
        } ]
      }, {
        "title": "QuestionnaireResponse",
        "entry": [ {
          "reference": "urn:uuid:94a0269d-387d-4da1-a9b5-2da167b8f9bb"
        } ]
      }, {
        "title": "QuestionnaireResponse",
        "entry": [ {
          "reference": "urn:uuid:6d863894-4d29-43bd-817b-e287d62ba400"
        } ]
      }, {
        "title": "QuestionnaireResponse",
        "entry": [ {
          "reference": "urn:uuid:db2d83da-3a8e-4fef-8ac1-eea6387d2e99"
        } ]
      }, {
        "title": "QuestionnaireResponse",
        "entry": [ {
          "reference": "urn:uuid:510b59d8-7319-4ccb-b3d9-bba56dfe16c4"
        } ]
      }, {
        "title": "QuestionnaireResponse",
        "entry": [ {
          "reference": "urn:uuid:f4bc4281-f6c6-45fa-8b8b-2cb74b34b34f"
        } ]
      }, {
        "title": "QuestionnaireResponse",
        "entry": [ {
          "reference": "urn:uuid:46c26346-9664-4dfb-b720-f7f5c096d980"
        } ]
      }, {
        "title": "QuestionnaireResponse",
        "entry": [ {
          "reference": "urn:uuid:c22e0cad-7362-4763-8dd9-a98fcd7539cd"
        } ]
      }, {
        "title": "QuestionnaireResponse",
        "entry": [ {
          "reference": "urn:uuid:9885cf49-80ef-475c-9a3c-6c407caafcf0"
        } ]
      }, {
        "title": "QuestionnaireResponse",
        "entry": [ {
          "reference": "urn:uuid:915565e0-8533-45fd-beac-aae77ecb8719"
        } ]
      }, {
        "title": "QuestionnaireResponse",
        "entry": [ {
          "reference": "urn:uuid:34001781-a8fb-41de-ad9d-c857aee39814"
        } ]
      }, {
        "title": "QuestionnaireResponse",
        "entry": [ {
          "reference": "urn:uuid:c1b98081-b19b-404f-b8a9-b2c1ee05828c"
        } ]
      }, {
        "title": "QuestionnaireResponse",
        "entry": [ {
          "reference": "urn:uuid:84e420d2-d9fa-419f-b39a-c3399cbcaa1a"
        } ]
      }, {
        "title": "QuestionnaireResponse",
        "entry": [ {
          "reference": "urn:uuid:b873c03e-8975-4ecf-a094-6ebfeab6a655"
        } ]
      } ]
    }
  }, {
    "fullUrl": "urn:uuid:93b1903c-d5fb-4e2e-80c2-b7e3f58bc15d",
    "resource": {
      "resourceType": "CarePlan",
      "id": "93b1903c-d5fb-4e2e-80c2-b7e3f58bc15d",
      "status": "completed",
      "intent": "plan",
      "title": "Information And Advice Given",
      "subject": {
        "reference": "urn:uuid:2ee69256-43c3-4a40-af41-4e5e53be5043"
      },
      "context": {
        "reference": "urn:uuid:4073fef6-ee62-4a07-96d0-390a19cd4544"
      },
      "period": {
        "start": "2021-04-06T11:33:35+00:00"
      },
      "author": [ {
        "reference": "urn:uuid:629345b6-1610-4898-b484-8a0d522f592c"
      } ],
      "addresses": [ {
        "reference": "urn:uuid:7880ff7f-8a97-4c35-b43b-f74ccfc4c3eb"
      } ]
    }
  }, {
    "fullUrl": "urn:uuid:f8275916-9ea3-4568-83cd-9701fe855382",
    "resource": {
      "resourceType": "Consent",
      "id": "f8275916-9ea3-4568-83cd-9701fe855382",
      "identifier": {
        "use": "usual",
        "value": "A8E3FB32-6805-4191-B071-EA540A9318CD"
      },
      "status": "active",
      "patient": {
        "reference": "urn:uuid:2ee69256-43c3-4a40-af41-4e5e53be5043"
      },
      "period": {
        "start": "2021-04-06T11:33:35+00:00"
      },
      "consentingParty": [ {
        "reference": "urn:uuid:2ee69256-43c3-4a40-af41-4e5e53be5043"
      } ],
      "action": [ {
        "coding": [ {
          "system": "http://snomed.info/sct",
          "code": "425691002",
          "display": "Consent given for electronic record sharing"
        } ],
        "text": "Consent given for electronic record sharing"
      } ],
      "organization": [ {
        "reference": "urn:uuid:89507367-1afb-45ac-bc2d-28487057e427"
      } ],
      "policyRule": "http://hl7.org/fhir/ConsentPolicy/opt-out",
      "data": [ {
        "meaning": "related",
        "reference": {
          "reference": "urn:uuid:4073fef6-ee62-4a07-96d0-390a19cd4544"
        }
      } ]
    }
  }, {
    "fullUrl": "urn:uuid:7880ff7f-8a97-4c35-b43b-f74ccfc4c3eb",
    "resource": {
      "resourceType": "Condition",
      "id": "7880ff7f-8a97-4c35-b43b-f74ccfc4c3eb",
      "clinicalStatus": "active",
      "verificationStatus": "unknown",
      "subject": {
        "reference": "urn:uuid:2ee69256-43c3-4a40-af41-4e5e53be5043"
      },
      "context": {
        "reference": "urn:uuid:4073fef6-ee62-4a07-96d0-390a19cd4544"
      },
      "evidence": [ {
        "detail": [ {
          "reference": "urn:uuid:39998a77-2930-41d2-a42d-a335fb7780fc"
        } ]
      }, {
        "detail": [ {
          "reference": "urn:uuid:bf57519b-5290-40d9-8d44-770995c7d528"
        } ]
      }, {
        "detail": [ {
          "reference": "urn:uuid:2c170836-c75c-45a4-a6d1-eaeb2320fb18"
        } ]
      }, {
        "detail": [ {
          "reference": "urn:uuid:7586ba84-a1f0-45bf-b2c9-61f98053ffe6"
        } ]
      }, {
        "detail": [ {
          "reference": "urn:uuid:6c2c3e94-4b40-4e37-9c83-07114879ee82"
        } ]
      }, {
        "detail": [ {
          "reference": "urn:uuid:1844d675-646b-4550-a347-05dcb285966b"
        } ]
      }, {
        "detail": [ {
          "reference": "urn:uuid:49d07acc-e7c6-4f5e-8021-6fdccc3e3fe9"
        } ]
      }, {
        "detail": [ {
          "reference": "urn:uuid:55954440-a7d4-4d5b-83d4-cbab864e94df"
        } ]
      }, {
        "detail": [ {
          "reference": "urn:uuid:78a5df8a-2057-4b9a-a884-4b5a62f17f9a"
        } ]
      }, {
        "detail": [ {
          "reference": "urn:uuid:a9f55220-af59-4d72-8fd9-ea70f7e5eefa"
        } ]
      }, {
        "detail": [ {
          "reference": "urn:uuid:2639e8d5-4864-4efb-8d78-bc465d4e35a6"
        } ]
      }, {
        "detail": [ {
          "reference": "urn:uuid:26286c21-2523-4854-bbc3-61b76064c6ee"
        } ]
      }, {
        "detail": [ {
          "reference": "urn:uuid:ddda1436-4f52-4a15-8ea4-c1e135dc15dc"
        } ]
      }, {
        "detail": [ {
          "reference": "urn:uuid:8aafd6d9-9734-4116-b71f-2684589dc889"
        } ]
      }, {
        "detail": [ {
          "reference": "urn:uuid:3035a74f-281b-4201-866d-725259697b9c"
        } ]
      }, {
        "detail": [ {
          "reference": "urn:uuid:a55c4863-ddec-4f86-bf36-8c95f18487c2"
        } ]
      }, {
        "detail": [ {
          "reference": "urn:uuid:9410e9ce-ac39-4f63-84cb-73a9bfc69611"
        } ]
      }, {
        "detail": [ {
          "reference": "urn:uuid:93cef408-56dc-4172-81e5-ff03a7eb3855"
        } ]
      }, {
        "detail": [ {
          "reference": "urn:uuid:d2174b9f-b6b8-4996-ad65-bde803583623"
        } ]
      }, {
        "detail": [ {
          "reference": "urn:uuid:cc6e0b0b-825b-4155-b43e-5da09a32fa78"
        } ]
      }, {
        "detail": [ {
          "reference": "urn:uuid:d014d9ad-63fb-4653-9d4b-6d97df15161b"
        } ]
      }, {
        "detail": [ {
          "reference": "urn:uuid:1303ccab-1647-4838-bfcb-14c2af278763"
        } ]
      }, {
        "detail": [ {
          "reference": "urn:uuid:9c1f214e-52dd-4f08-b0de-dd80e66a506a"
        } ]
      }, {
        "detail": [ {
          "reference": "urn:uuid:0b491558-ce03-40cc-8860-4cfd4d5af403"
        } ]
      }, {
        "detail": [ {
          "reference": "urn:uuid:ed558683-5039-4425-ab9b-505fc1e2e84a"
        } ]
      }, {
        "detail": [ {
          "reference": "urn:uuid:c6ee1def-8b79-4407-9a85-fc5216af1d8a"
        } ]
      }, {
        "detail": [ {
          "reference": "urn:uuid:1b3e0c8b-6910-4d25-ba71-5c8223ba7574"
        } ]
      }, {
        "detail": [ {
          "reference": "urn:uuid:d291a7e0-0e13-480a-b87d-fbfb9ab7046c"
        } ]
      }, {
        "detail": [ {
          "reference": "urn:uuid:a3e2cd1d-1b48-4085-88f8-b7a062cc1b47"
        } ]
      }, {
        "detail": [ {
          "reference": "urn:uuid:7a49676b-c515-4b46-8be0-ac7f42d58451"
        } ]
      }, {
        "detail": [ {
          "reference": "urn:uuid:b1929a48-5cf6-4ab3-afbd-fc93592fbf22"
        } ]
      }, {
        "detail": [ {
          "reference": "urn:uuid:8f757cce-b8e5-4c57-a906-5560fe872626"
        } ]
      }, {
        "detail": [ {
          "reference": "urn:uuid:14706a54-a3de-476e-a645-0da914907cd6"
        } ]
      }, {
        "detail": [ {
          "reference": "urn:uuid:93e2ab51-2991-478d-aae7-02caf1a83d3c"
        } ]
      }, {
        "detail": [ {
          "reference": "urn:uuid:ae05c68c-5dec-48a5-b75b-d59c0c5c2c81"
        } ]
      }, {
        "detail": [ {
          "reference": "urn:uuid:dd90046a-ed2c-492a-84c3-a05cc8534dad"
        } ]
      }, {
        "detail": [ {
          "reference": "urn:uuid:776d9971-5ce7-4224-a1af-ed2ea3d433f8"
        } ]
      }, {
        "detail": [ {
          "reference": "urn:uuid:7680ce2f-6173-4015-a6c1-508d41325de4"
        } ]
      }, {
        "detail": [ {
          "reference": "urn:uuid:23711fab-e2f9-4cf9-974d-170507199231"
        } ]
      }, {
        "detail": [ {
          "reference": "urn:uuid:5600d718-00b5-4f20-8bab-ed318e54ebb1"
        } ]
      }, {
        "detail": [ {
          "reference": "urn:uuid:e43d5fd3-5b87-453c-9a8a-b6e3ef2cf965"
        } ]
      }, {
        "detail": [ {
          "reference": "urn:uuid:becc5a73-8655-40da-83de-24485e2fc639"
        } ]
      }, {
        "detail": [ {
          "reference": "urn:uuid:ab914ef4-c49c-46fa-b539-ee2f4e363283"
        } ]
      }, {
        "detail": [ {
          "reference": "urn:uuid:2d93303c-d529-46dd-b1bc-53b7513a222f"
        } ]
      }, {
        "detail": [ {
          "reference": "urn:uuid:c5aa4406-2011-4809-aab3-5ebd26acd88b"
        } ]
      }, {
        "detail": [ {
          "reference": "urn:uuid:c80cd05b-6f52-408d-8141-da4f217ccded"
        } ]
      }, {
        "detail": [ {
          "reference": "urn:uuid:0deae281-489c-4187-9536-89b3c6c7032c"
        } ]
      }, {
        "detail": [ {
          "reference": "urn:uuid:3a6334f6-5620-483d-b1fa-44282422fea8"
        } ]
      }, {
        "detail": [ {
          "reference": "urn:uuid:7627d42b-20e7-4b75-9ad1-8c5ddc6c9b1c"
        } ]
      }, {
        "detail": [ {
          "reference": "urn:uuid:075a2ee7-b139-4748-ac27-a6cbb34ce94c"
        } ]
      }, {
        "detail": [ {
          "reference": "urn:uuid:cf79fb4d-a74e-438c-8983-14ee9137badd"
        } ]
      }, {
        "detail": [ {
          "reference": "urn:uuid:e25320e5-c6b0-4fc7-bd47-d29c1701c048"
        } ]
      }, {
        "detail": [ {
          "reference": "urn:uuid:2cbbb0d6-0358-487c-aa78-3c6ceae8f10a"
        } ]
      }, {
        "detail": [ {
          "reference": "urn:uuid:cf87da14-0b84-4044-af18-fa20d45c7515"
        } ]
      }, {
        "detail": [ {
          "reference": "urn:uuid:5c217342-17f8-4b76-b0fb-52264f9b7deb"
        } ]
      }, {
        "detail": [ {
          "reference": "urn:uuid:22de08d3-7e44-48ca-9424-518153aac26e"
        } ]
      }, {
        "detail": [ {
          "reference": "urn:uuid:53e3209a-54de-471d-a190-9427ee97705a"
        } ]
      }, {
        "detail": [ {
          "reference": "urn:uuid:30eeb737-21a2-4639-8864-29ef0573e88c"
        } ]
      }, {
        "detail": [ {
          "reference": "urn:uuid:97b905bb-ad0d-496a-a0dd-1acd08221946"
        } ]
      }, {
        "detail": [ {
          "reference": "urn:uuid:d160d83c-f288-4002-92e7-02905b8ac0cd"
        } ]
      }, {
        "detail": [ {
          "reference": "urn:uuid:94a0269d-387d-4da1-a9b5-2da167b8f9bb"
        } ]
      }, {
        "detail": [ {
          "reference": "urn:uuid:6d863894-4d29-43bd-817b-e287d62ba400"
        } ]
      }, {
        "detail": [ {
          "reference": "urn:uuid:db2d83da-3a8e-4fef-8ac1-eea6387d2e99"
        } ]
      }, {
        "detail": [ {
          "reference": "urn:uuid:510b59d8-7319-4ccb-b3d9-bba56dfe16c4"
        } ]
      }, {
        "detail": [ {
          "reference": "urn:uuid:f4bc4281-f6c6-45fa-8b8b-2cb74b34b34f"
        } ]
      }, {
        "detail": [ {
          "reference": "urn:uuid:46c26346-9664-4dfb-b720-f7f5c096d980"
        } ]
      }, {
        "detail": [ {
          "reference": "urn:uuid:c22e0cad-7362-4763-8dd9-a98fcd7539cd"
        } ]
      }, {
        "detail": [ {
          "reference": "urn:uuid:9885cf49-80ef-475c-9a3c-6c407caafcf0"
        } ]
      }, {
        "detail": [ {
          "reference": "urn:uuid:915565e0-8533-45fd-beac-aae77ecb8719"
        } ]
      }, {
        "detail": [ {
          "reference": "urn:uuid:34001781-a8fb-41de-ad9d-c857aee39814"
        } ]
      }, {
        "detail": [ {
          "reference": "urn:uuid:c1b98081-b19b-404f-b8a9-b2c1ee05828c"
        } ]
      }, {
        "detail": [ {
          "reference": "urn:uuid:84e420d2-d9fa-419f-b39a-c3399cbcaa1a"
        } ]
      }, {
        "detail": [ {
          "reference": "urn:uuid:b873c03e-8975-4ecf-a094-6ebfeab6a655"
        } ]
      } ]
    }
  }, {
    "fullUrl": "urn:uuid:39998a77-2930-41d2-a42d-a335fb7780fc",
    "resource": {
      "resourceType": "QuestionnaireResponse",
      "id": "39998a77-2930-41d2-a42d-a335fb7780fc",
      "identifier": {
        "value": "59132"
      },
      "questionnaire": {
        "reference": "urn:uuid:b97d14cf-20d6-4924-a280-4b75defed1e6"
      },
      "status": "completed",
      "subject": {
        "reference": "urn:uuid:2ee69256-43c3-4a40-af41-4e5e53be5043"
      },
      "context": {
        "reference": "urn:uuid:4073fef6-ee62-4a07-96d0-390a19cd4544"
      },
      "authored": "2021-04-06T11:33:34+00:00",
      "item": [ {
        "linkId": "Tx220074",
        "text": "What is the reason for the contact?",
        "answer": [ {
          "valueString": "an injury or other health problem"
        } ]
      } ]
    }
  }, {
    "fullUrl": "urn:uuid:b97d14cf-20d6-4924-a280-4b75defed1e6",
    "resource": {
      "resourceType": "Questionnaire",
      "id": "b97d14cf-20d6-4924-a280-4b75defed1e6",
      "identifier": [ {
        "value": "59132"
      } ],
      "version": "2021-04-06T11:33:34.963Z",
      "status": "active",
      "experimental": false,
      "date": "2021-04-06T11:33:34+00:00",
      "publisher": "User ID: 'MCDONALDD' User name: 'Denzle McDonald' User skill set: 'T3'",
      "lastReviewDate": "2021-04-06",
      "subjectType": [ "Patient" ],
      "item": [ {
        "linkId": "59132",
        "prefix": "5",
        "text": "What is the reason for the contact?",
        "type": "choice",
        "required": true,
        "repeats": false,
        "option": [ {
          "valueString": "an injury or other health problem, Selected: true"
        }, {
          "valueString": "labour or childbirth, Selected: false"
        }, {
          "valueString": "a need to access another healthcare service, Selected: false"
        }, {
          "valueString": "a healthcare professional requesting contact with another clinician, Selected: false"
        }, {
          "valueString": "a report of results or tests, Selected: false"
        }, {
          "valueString": "a possible failure of contraception, Selected: false"
        }, {
          "valueString": "more, Selected: false"
        } ]
      } ]
    }
  }, {
    "fullUrl": "urn:uuid:bf57519b-5290-40d9-8d44-770995c7d528",
    "resource": {
      "resourceType": "QuestionnaireResponse",
      "id": "bf57519b-5290-40d9-8d44-770995c7d528",
      "identifier": {
        "value": "59132"
      },
      "questionnaire": {
        "reference": "urn:uuid:96e86ca2-0d9b-4526-a18f-2bb1e23627fc"
      },
      "status": "completed",
      "subject": {
        "reference": "urn:uuid:2ee69256-43c3-4a40-af41-4e5e53be5043"
      },
      "context": {
        "reference": "urn:uuid:4073fef6-ee62-4a07-96d0-390a19cd4544"
      },
      "authored": "2021-04-06T11:33:34+00:00",
      "item": [ {
        "linkId": "Tx221807",
        "text": "STRING:to'Immediatethreatstolife(SPA/OOHversion)'-'Majorbloodloss'stem",
        "answer": [ {
          "valueString": "\"present\""
        } ]
      } ]
    }
  }, {
    "fullUrl": "urn:uuid:96e86ca2-0d9b-4526-a18f-2bb1e23627fc",
    "resource": {
      "resourceType": "Questionnaire",
      "id": "96e86ca2-0d9b-4526-a18f-2bb1e23627fc",
      "identifier": [ {
        "value": "59132"
      } ],
      "version": "2021-04-06T11:33:34.963Z",
      "status": "active",
      "experimental": false,
      "date": "2021-04-06T11:33:34+00:00",
      "publisher": "User ID: 'MCDONALDD' User name: 'Denzle McDonald' User skill set: 'T3'",
      "lastReviewDate": "2021-04-06",
      "subjectType": [ "Patient" ],
      "item": [ {
        "linkId": "59132",
        "prefix": "400",
        "text": "STRING:to'Immediatethreatstolife(SPA/OOHversion)'-'Majorbloodloss'stem",
        "type": "choice",
        "required": true,
        "repeats": false,
        "option": [ {
          "valueString": "\"present\", Selected: true"
        } ]
      } ]
    }
  }, {
    "fullUrl": "urn:uuid:2c170836-c75c-45a4-a6d1-eaeb2320fb18",
    "resource": {
      "resourceType": "QuestionnaireResponse",
      "id": "2c170836-c75c-45a4-a6d1-eaeb2320fb18",
      "identifier": {
        "value": "59132"
      },
      "questionnaire": {
        "reference": "urn:uuid:ddee358b-ad66-41e4-92e3-7f2e3481da1f"
      },
      "status": "completed",
      "subject": {
        "reference": "urn:uuid:2ee69256-43c3-4a40-af41-4e5e53be5043"
      },
      "context": {
        "reference": "urn:uuid:4073fef6-ee62-4a07-96d0-390a19cd4544"
      },
      "authored": "2021-04-06T11:33:34+00:00"
    }
  }, {
    "fullUrl": "urn:uuid:ddee358b-ad66-41e4-92e3-7f2e3481da1f",
    "resource": {
      "resourceType": "Questionnaire",
      "id": "ddee358b-ad66-41e4-92e3-7f2e3481da1f",
      "identifier": [ {
        "value": "59132"
      } ],
      "version": "2021-04-06T11:33:34.963Z",
      "status": "active",
      "experimental": false,
      "date": "2021-04-06T11:33:34+00:00",
      "publisher": "User ID: 'MCDONALDD' User name: 'Denzle McDonald' User skill set: 'T3'",
      "lastReviewDate": "2021-04-06",
      "subjectType": [ "Patient" ]
    }
  }, {
    "fullUrl": "urn:uuid:7586ba84-a1f0-45bf-b2c9-61f98053ffe6",
    "resource": {
      "resourceType": "QuestionnaireResponse",
      "id": "7586ba84-a1f0-45bf-b2c9-61f98053ffe6",
      "identifier": {
        "value": "59132"
      },
      "questionnaire": {
        "reference": "urn:uuid:cae562ac-a725-40b9-8937-af8fb9e9ac95"
      },
      "status": "completed",
      "subject": {
        "reference": "urn:uuid:2ee69256-43c3-4a40-af41-4e5e53be5043"
      },
      "context": {
        "reference": "urn:uuid:4073fef6-ee62-4a07-96d0-390a19cd4544"
      },
      "authored": "2021-04-06T11:33:34+00:00",
      "item": [ {
        "linkId": "Tx221799",
        "text": "STRING:injury,illnessorlabourestablishedinEntryFlow",
        "answer": [ {
          "valueString": "\"present\""
        } ]
      } ]
    }
  }, {
    "fullUrl": "urn:uuid:cae562ac-a725-40b9-8937-af8fb9e9ac95",
    "resource": {
      "resourceType": "Questionnaire",
      "id": "cae562ac-a725-40b9-8937-af8fb9e9ac95",
      "identifier": [ {
        "value": "59132"
      } ],
      "version": "2021-04-06T11:33:34.963Z",
      "status": "active",
      "experimental": false,
      "date": "2021-04-06T11:33:34+00:00",
      "publisher": "User ID: 'MCDONALDD' User name: 'Denzle McDonald' User skill set: 'T3'",
      "lastReviewDate": "2021-04-06",
      "subjectType": [ "Patient" ],
      "item": [ {
        "linkId": "59132",
        "prefix": "0",
        "text": "STRING:injury,illnessorlabourestablishedinEntryFlow",
        "type": "choice",
        "required": true,
        "repeats": false,
        "option": [ {
          "valueString": "\"present\", Selected: true"
        } ]
      } ]
    }
  }, {
    "fullUrl": "urn:uuid:6c2c3e94-4b40-4e37-9c83-07114879ee82",
    "resource": {
      "resourceType": "QuestionnaireResponse",
      "id": "6c2c3e94-4b40-4e37-9c83-07114879ee82",
      "identifier": {
        "value": "59132"
      },
      "questionnaire": {
        "reference": "urn:uuid:62053716-d613-4021-b860-363aeebbd2d2"
      },
      "status": "completed",
      "subject": {
        "reference": "urn:uuid:2ee69256-43c3-4a40-af41-4e5e53be5043"
      },
      "context": {
        "reference": "urn:uuid:4073fef6-ee62-4a07-96d0-390a19cd4544"
      },
      "authored": "2021-04-06T11:33:34+00:00",
      "item": [ {
        "linkId": "Tx221421",
        "text": "Have you been bleeding RED BLOOD very heavily IN THE LAST 30 MINUTES?",
        "answer": [ {
          "valueString": "no"
        } ]
      } ]
    }
  }, {
    "fullUrl": "urn:uuid:62053716-d613-4021-b860-363aeebbd2d2",
    "resource": {
      "resourceType": "Questionnaire",
      "id": "62053716-d613-4021-b860-363aeebbd2d2",
      "identifier": [ {
        "value": "59132"
      } ],
      "version": "2021-04-06T11:33:34.963Z",
      "status": "active",
      "experimental": false,
      "date": "2021-04-06T11:33:34+00:00",
      "publisher": "User ID: 'MCDONALDD' User name: 'Denzle McDonald' User skill set: 'T3'",
      "lastReviewDate": "2021-04-06",
      "subjectType": [ "Patient" ],
      "item": [ {
        "linkId": "59132",
        "prefix": "200",
        "text": "Have you been bleeding RED BLOOD very heavily IN THE LAST 30 MINUTES?",
        "type": "choice",
        "required": true,
        "repeats": false,
        "option": [ {
          "valueString": "yes, Selected: false"
        }, {
          "valueString": "not sure, Selected: false"
        }, {
          "valueString": "no, Selected: true"
        } ]
      } ]
    }
  }, {
    "fullUrl": "urn:uuid:1844d675-646b-4550-a347-05dcb285966b",
    "resource": {
      "resourceType": "QuestionnaireResponse",
      "id": "1844d675-646b-4550-a347-05dcb285966b",
      "identifier": {
        "value": "59132"
      },
      "questionnaire": {
        "reference": "urn:uuid:189b75b9-f507-4fc4-8906-cbf7de906550"
      },
      "status": "completed",
      "subject": {
        "reference": "urn:uuid:2ee69256-43c3-4a40-af41-4e5e53be5043"
      },
      "context": {
        "reference": "urn:uuid:4073fef6-ee62-4a07-96d0-390a19cd4544"
      },
      "authored": "2021-04-06T11:33:34+00:00",
      "item": [ {
        "linkId": "Tx221343",
        "text": "SocialConcernsExcluded",
        "answer": [ {
          "valueString": "*"
        } ]
      } ]
    }
  }, {
    "fullUrl": "urn:uuid:189b75b9-f507-4fc4-8906-cbf7de906550",
    "resource": {
      "resourceType": "Questionnaire",
      "id": "189b75b9-f507-4fc4-8906-cbf7de906550",
      "identifier": [ {
        "value": "59132"
      } ],
      "version": "2021-04-06T11:33:34.963Z",
      "status": "active",
      "experimental": false,
      "date": "2021-04-06T11:33:34+00:00",
      "publisher": "User ID: 'MCDONALDD' User name: 'Denzle McDonald' User skill set: 'T3'",
      "lastReviewDate": "2021-04-06",
      "subjectType": [ "Patient" ],
      "item": [ {
        "linkId": "59132",
        "prefix": "2600",
        "text": "SocialConcernsExcluded",
        "type": "choice",
        "required": true,
        "repeats": false,
        "option": [ {
          "valueString": "==\"present\", Selected: false"
        }, {
          "valueString": "*, Selected: true"
        } ]
      } ]
    }
  }, {
    "fullUrl": "urn:uuid:49d07acc-e7c6-4f5e-8021-6fdccc3e3fe9",
    "resource": {
      "resourceType": "QuestionnaireResponse",
      "id": "49d07acc-e7c6-4f5e-8021-6fdccc3e3fe9",
      "identifier": {
        "value": "59132"
      },
      "questionnaire": {
        "reference": "urn:uuid:06d7854d-81c6-436c-a816-d3f2a977494b"
      },
      "status": "completed",
      "subject": {
        "reference": "urn:uuid:2ee69256-43c3-4a40-af41-4e5e53be5043"
      },
      "context": {
        "reference": "urn:uuid:4073fef6-ee62-4a07-96d0-390a19cd4544"
      },
      "authored": "2021-04-06T11:33:34+00:00",
      "item": [ {
        "linkId": "Tx130011",
        "text": "What is the main problem?",
        "answer": [ {
          "valueString": "illness or other health problem (specify)"
        } ]
      } ]
    }
  }, {
    "fullUrl": "urn:uuid:06d7854d-81c6-436c-a816-d3f2a977494b",
    "resource": {
      "resourceType": "Questionnaire",
      "id": "06d7854d-81c6-436c-a816-d3f2a977494b",
      "identifier": [ {
        "value": "59132"
      } ],
      "version": "2021-04-06T11:33:34.963Z",
      "status": "active",
      "experimental": false,
      "date": "2021-04-06T11:33:34+00:00",
      "publisher": "User ID: 'MCDONALDD' User name: 'Denzle McDonald' User skill set: 'T3'",
      "lastReviewDate": "2021-04-06",
      "subjectType": [ "Patient" ],
      "item": [ {
        "linkId": "59132",
        "prefix": "2500",
        "text": "What is the main problem?",
        "type": "choice",
        "required": true,
        "repeats": false,
        "option": [ {
          "valueString": "the individual has been told to follow a particular course of action (specify), Selected: false"
        }, {
          "valueString": "the individual is an identified frequent caller, Selected: false"
        }, {
          "valueString": "injury (specify), Selected: false"
        }, {
          "valueString": "illness or other health problem (specify), Selected: true"
        }, {
          "valueString": "child protection/vulnerable adult concern, Selected: false"
        }, {
          "valueString": "social or domestic emergency, Selected: false"
        }, {
          "valueString": "the environment potentially poses an immediate threat to life (specify), Selected: false"
        } ]
      } ]
    }
  }, {
    "fullUrl": "urn:uuid:55954440-a7d4-4d5b-83d4-cbab864e94df",
    "resource": {
      "resourceType": "QuestionnaireResponse",
      "id": "55954440-a7d4-4d5b-83d4-cbab864e94df",
      "identifier": {
        "value": "59132"
      },
      "questionnaire": {
        "reference": "urn:uuid:ec06ee63-8499-47b7-aa5f-374d0d8b141f"
      },
      "status": "completed",
      "subject": {
        "reference": "urn:uuid:2ee69256-43c3-4a40-af41-4e5e53be5043"
      },
      "context": {
        "reference": "urn:uuid:4073fef6-ee62-4a07-96d0-390a19cd4544"
      },
      "authored": "2021-04-06T11:33:34+00:00"
    }
  }, {
    "fullUrl": "urn:uuid:ec06ee63-8499-47b7-aa5f-374d0d8b141f",
    "resource": {
      "resourceType": "Questionnaire",
      "id": "ec06ee63-8499-47b7-aa5f-374d0d8b141f",
      "identifier": [ {
        "value": "59132"
      } ],
      "version": "2021-04-06T11:33:34.963Z",
      "status": "active",
      "experimental": false,
      "date": "2021-04-06T11:33:34+00:00",
      "publisher": "User ID: 'MCDONALDD' User name: 'Denzle McDonald' User skill set: 'T3'",
      "lastReviewDate": "2021-04-06",
      "subjectType": [ "Patient" ]
    }
  }, {
    "fullUrl": "urn:uuid:78a5df8a-2057-4b9a-a884-4b5a62f17f9a",
    "resource": {
      "resourceType": "QuestionnaireResponse",
      "id": "78a5df8a-2057-4b9a-a884-4b5a62f17f9a",
      "identifier": {
        "value": "59132"
      },
      "questionnaire": {
        "reference": "urn:uuid:79cab73b-3ea1-4d34-9598-aa0ad0106085"
      },
      "status": "completed",
      "subject": {
        "reference": "urn:uuid:2ee69256-43c3-4a40-af41-4e5e53be5043"
      },
      "context": {
        "reference": "urn:uuid:4073fef6-ee62-4a07-96d0-390a19cd4544"
      },
      "authored": "2021-04-06T11:33:34+00:00",
      "item": [ {
        "linkId": "Tx61025",
        "text": "Are you so breathless that speaking more than a few words is impossible?",
        "answer": [ {
          "valueString": "no"
        } ]
      } ]
    }
  }, {
    "fullUrl": "urn:uuid:79cab73b-3ea1-4d34-9598-aa0ad0106085",
    "resource": {
      "resourceType": "Questionnaire",
      "id": "79cab73b-3ea1-4d34-9598-aa0ad0106085",
      "identifier": [ {
        "value": "59132"
      } ],
      "version": "2021-04-06T11:33:34.963Z",
      "status": "active",
      "experimental": false,
      "date": "2021-04-06T11:33:34+00:00",
      "publisher": "User ID: 'MCDONALDD' User name: 'Denzle McDonald' User skill set: 'T3'",
      "lastReviewDate": "2021-04-06",
      "subjectType": [ "Patient" ],
      "item": [ {
        "linkId": "59132",
        "prefix": "0",
        "text": "Are you so breathless that speaking more than a few words is impossible?",
        "type": "choice",
        "required": true,
        "repeats": false,
        "option": [ {
          "valueString": "yes, Selected: false"
        }, {
          "valueString": "not sure, Selected: false"
        }, {
          "valueString": "no, Selected: true"
        } ]
      } ]
    }
  }, {
    "fullUrl": "urn:uuid:a9f55220-af59-4d72-8fd9-ea70f7e5eefa",
    "resource": {
      "resourceType": "QuestionnaireResponse",
      "id": "a9f55220-af59-4d72-8fd9-ea70f7e5eefa",
      "identifier": {
        "value": "59132"
      },
      "questionnaire": {
        "reference": "urn:uuid:f3999671-5c71-43ff-8905-0bdbec62bec3"
      },
      "status": "completed",
      "subject": {
        "reference": "urn:uuid:2ee69256-43c3-4a40-af41-4e5e53be5043"
      },
      "context": {
        "reference": "urn:uuid:4073fef6-ee62-4a07-96d0-390a19cd4544"
      },
      "authored": "2021-04-06T11:33:34+00:00",
      "item": [ {
        "linkId": "Tx220845",
        "text": "SYSTEM_FLUPANDEMIC",
        "answer": [ {
          "valueString": "*"
        } ]
      } ]
    }
  }, {
    "fullUrl": "urn:uuid:f3999671-5c71-43ff-8905-0bdbec62bec3",
    "resource": {
      "resourceType": "Questionnaire",
      "id": "f3999671-5c71-43ff-8905-0bdbec62bec3",
      "identifier": [ {
        "value": "59132"
      } ],
      "version": "2021-04-06T11:33:34.963Z",
      "status": "active",
      "experimental": false,
      "date": "2021-04-06T11:33:34+00:00",
      "publisher": "User ID: 'MCDONALDD' User name: 'Denzle McDonald' User skill set: 'T3'",
      "lastReviewDate": "2021-04-06",
      "subjectType": [ "Patient" ],
      "item": [ {
        "linkId": "59132",
        "prefix": "100",
        "text": "SYSTEM_FLUPANDEMIC",
        "type": "choice",
        "required": true,
        "repeats": false,
        "option": [ {
          "valueString": "==\"pandemic\", Selected: false"
        }, {
          "valueString": "*, Selected: true"
        } ]
      } ]
    }
  }, {
    "fullUrl": "urn:uuid:2639e8d5-4864-4efb-8d78-bc465d4e35a6",
    "resource": {
      "resourceType": "QuestionnaireResponse",
      "id": "2639e8d5-4864-4efb-8d78-bc465d4e35a6",
      "identifier": {
        "value": "59132"
      },
      "questionnaire": {
        "reference": "urn:uuid:f7d5b404-9cbf-407f-b425-05cf97201563"
      },
      "status": "completed",
      "subject": {
        "reference": "urn:uuid:2ee69256-43c3-4a40-af41-4e5e53be5043"
      },
      "context": {
        "reference": "urn:uuid:4073fef6-ee62-4a07-96d0-390a19cd4544"
      },
      "authored": "2021-04-06T11:33:34+00:00",
      "item": [ {
        "linkId": "Tx220044",
        "text": "WHAT IS SAID TO BE THE MAIN REASON FOR THIS CONTACT?",
        "answer": [ {
          "valueString": "more"
        } ]
      } ]
    }
  }, {
    "fullUrl": "urn:uuid:f7d5b404-9cbf-407f-b425-05cf97201563",
    "resource": {
      "resourceType": "Questionnaire",
      "id": "f7d5b404-9cbf-407f-b425-05cf97201563",
      "identifier": [ {
        "value": "59132"
      } ],
      "version": "2021-04-06T11:33:34.963Z",
      "status": "active",
      "experimental": false,
      "date": "2021-04-06T11:33:34+00:00",
      "publisher": "User ID: 'MCDONALDD' User name: 'Denzle McDonald' User skill set: 'T3'",
      "lastReviewDate": "2021-04-06",
      "subjectType": [ "Patient" ],
      "item": [ {
        "linkId": "59132",
        "prefix": "5000",
        "text": "WHAT IS SAID TO BE THE MAIN REASON FOR THIS CONTACT?",
        "type": "choice",
        "required": true,
        "repeats": false,
        "option": [ {
          "valueString": "a probable allergic reaction now, Selected: false"
        }, {
          "valueString": "chest or upper back pain, Selected: false"
        }, {
          "valueString": "a probable fit or seizure within the last 12 hours, Selected: false"
        }, {
          "valueString": "a suicide attempt, Selected: false"
        }, {
          "valueString": "new confusion now, Selected: false"
        }, {
          "valueString": "a probable stroke or mini stroke, Selected: false"
        }, {
          "valueString": "more, Selected: true"
        } ]
      } ]
    }
  }, {
    "fullUrl": "urn:uuid:26286c21-2523-4854-bbc3-61b76064c6ee",
    "resource": {
      "resourceType": "QuestionnaireResponse",
      "id": "26286c21-2523-4854-bbc3-61b76064c6ee",
      "identifier": {
        "value": "59132"
      },
      "questionnaire": {
        "reference": "urn:uuid:8bd366ce-bd5f-4381-b383-426e09001489"
      },
      "status": "completed",
      "subject": {
        "reference": "urn:uuid:2ee69256-43c3-4a40-af41-4e5e53be5043"
      },
      "context": {
        "reference": "urn:uuid:4073fef6-ee62-4a07-96d0-390a19cd4544"
      },
      "authored": "2021-04-06T11:33:34+00:00",
      "item": [ {
        "linkId": "Tx223029",
        "text": "WHAT IS SAID TO BE THE MAIN REASON FOR THIS CONTACT?",
        "answer": [ {
          "valueString": "none of the above"
        } ]
      } ]
    }
  }, {
    "fullUrl": "urn:uuid:8bd366ce-bd5f-4381-b383-426e09001489",
    "resource": {
      "resourceType": "Questionnaire",
      "id": "8bd366ce-bd5f-4381-b383-426e09001489",
      "identifier": [ {
        "value": "59132"
      } ],
      "version": "2021-04-06T11:33:34.963Z",
      "status": "active",
      "experimental": false,
      "date": "2021-04-06T11:33:34+00:00",
      "publisher": "User ID: 'MCDONALDD' User name: 'Denzle McDonald' User skill set: 'T3'",
      "lastReviewDate": "2021-04-06",
      "subjectType": [ "Patient" ],
      "item": [ {
        "linkId": "59132",
        "prefix": "4100",
        "text": "WHAT IS SAID TO BE THE MAIN REASON FOR THIS CONTACT?",
        "type": "choice",
        "required": true,
        "repeats": false,
        "option": [ {
          "valueString": "a diabetic hypo (low blood sugar) or a diabetic hyper (high blood sugar), Selected: false"
        }, {
          "valueString": "recovery from an ICD (implanted cardioverter defibrillator) shock, Selected: false"
        }, {
          "valueString": "none of the above, Selected: true"
        } ]
      } ]
    }
  }, {
    "fullUrl": "urn:uuid:ddda1436-4f52-4a15-8ea4-c1e135dc15dc",
    "resource": {
      "resourceType": "QuestionnaireResponse",
      "id": "ddda1436-4f52-4a15-8ea4-c1e135dc15dc",
      "identifier": {
        "value": "59132"
      },
      "questionnaire": {
        "reference": "urn:uuid:60621e78-aec3-4aad-a799-501cff95b2dd"
      },
      "status": "completed",
      "subject": {
        "reference": "urn:uuid:2ee69256-43c3-4a40-af41-4e5e53be5043"
      },
      "context": {
        "reference": "urn:uuid:4073fef6-ee62-4a07-96d0-390a19cd4544"
      },
      "authored": "2021-04-06T11:33:34+00:00",
      "item": [ {
        "linkId": "Tx223142",
        "text": "Does the skin on the chest, back or abdomen feel a normal temperature?",
        "answer": [ {
          "valueString": "yes - normal, warm or hot"
        } ]
      } ]
    }
  }, {
    "fullUrl": "urn:uuid:60621e78-aec3-4aad-a799-501cff95b2dd",
    "resource": {
      "resourceType": "Questionnaire",
      "id": "60621e78-aec3-4aad-a799-501cff95b2dd",
      "identifier": [ {
        "value": "59132"
      } ],
      "version": "2021-04-06T11:33:34.963Z",
      "status": "active",
      "experimental": false,
      "date": "2021-04-06T11:33:34+00:00",
      "publisher": "User ID: 'MCDONALDD' User name: 'Denzle McDonald' User skill set: 'T3'",
      "lastReviewDate": "2021-04-06",
      "subjectType": [ "Patient" ],
      "item": [ {
        "linkId": "59132",
        "prefix": "4400",
        "text": "Does the skin on the chest, back or abdomen feel a normal temperature?",
        "type": "choice",
        "required": true,
        "repeats": false,
        "option": [ {
          "valueString": "yes - normal, warm or hot, Selected: true"
        }, {
          "valueString": "not sure, Selected: false"
        }, {
          "valueString": "no - cool OR cold, Selected: false"
        }, {
          "valueString": "not safe to touch, Selected: false"
        } ]
      } ]
    }
  }, {
    "fullUrl": "urn:uuid:8aafd6d9-9734-4116-b71f-2684589dc889",
    "resource": {
      "resourceType": "QuestionnaireResponse",
      "id": "8aafd6d9-9734-4116-b71f-2684589dc889",
      "identifier": {
        "value": "59132"
      },
      "questionnaire": {
        "reference": "urn:uuid:9317cfeb-0340-449c-86d3-00fae8925929"
      },
      "status": "completed",
      "subject": {
        "reference": "urn:uuid:2ee69256-43c3-4a40-af41-4e5e53be5043"
      },
      "context": {
        "reference": "urn:uuid:4073fef6-ee62-4a07-96d0-390a19cd4544"
      },
      "authored": "2021-04-06T11:33:34+00:00",
      "item": [ {
        "linkId": "Tx221724",
        "text": "STRING:ShockAsked",
        "answer": [ {
          "valueString": "\"present\""
        } ]
      } ]
    }
  }, {
    "fullUrl": "urn:uuid:9317cfeb-0340-449c-86d3-00fae8925929",
    "resource": {
      "resourceType": "Questionnaire",
      "id": "9317cfeb-0340-449c-86d3-00fae8925929",
      "identifier": [ {
        "value": "59132"
      } ],
      "version": "2021-04-06T11:33:34.963Z",
      "status": "active",
      "experimental": false,
      "date": "2021-04-06T11:33:34+00:00",
      "publisher": "User ID: 'MCDONALDD' User name: 'Denzle McDonald' User skill set: 'T3'",
      "lastReviewDate": "2021-04-06",
      "subjectType": [ "Patient" ],
      "item": [ {
        "linkId": "59132",
        "prefix": "3300",
        "text": "STRING:ShockAsked",
        "type": "choice",
        "required": true,
        "repeats": false,
        "option": [ {
          "valueString": "\"present\", Selected: true"
        } ]
      } ]
    }
  }, {
    "fullUrl": "urn:uuid:3035a74f-281b-4201-866d-725259697b9c",
    "resource": {
      "resourceType": "QuestionnaireResponse",
      "id": "3035a74f-281b-4201-866d-725259697b9c",
      "identifier": {
        "value": "59132"
      },
      "questionnaire": {
        "reference": "urn:uuid:6bd32a38-f0ea-4ad8-b7c8-53d36eedd914"
      },
      "status": "completed",
      "subject": {
        "reference": "urn:uuid:2ee69256-43c3-4a40-af41-4e5e53be5043"
      },
      "context": {
        "reference": "urn:uuid:4073fef6-ee62-4a07-96d0-390a19cd4544"
      },
      "authored": "2021-04-06T11:33:34+00:00"
    }
  }, {
    "fullUrl": "urn:uuid:6bd32a38-f0ea-4ad8-b7c8-53d36eedd914",
    "resource": {
      "resourceType": "Questionnaire",
      "id": "6bd32a38-f0ea-4ad8-b7c8-53d36eedd914",
      "identifier": [ {
        "value": "59132"
      } ],
      "version": "2021-04-06T11:33:34.963Z",
      "status": "active",
      "experimental": false,
      "date": "2021-04-06T11:33:34+00:00",
      "publisher": "User ID: 'MCDONALDD' User name: 'Denzle McDonald' User skill set: 'T3'",
      "lastReviewDate": "2021-04-06",
      "subjectType": [ "Patient" ]
    }
  }, {
    "fullUrl": "urn:uuid:a55c4863-ddec-4f86-bf36-8c95f18487c2",
    "resource": {
      "resourceType": "QuestionnaireResponse",
      "id": "a55c4863-ddec-4f86-bf36-8c95f18487c2",
      "identifier": {
        "value": "59132"
      },
      "questionnaire": {
        "reference": "urn:uuid:ca30f930-0bbd-48a7-83c5-4febbf76f97a"
      },
      "status": "completed",
      "subject": {
        "reference": "urn:uuid:2ee69256-43c3-4a40-af41-4e5e53be5043"
      },
      "context": {
        "reference": "urn:uuid:4073fef6-ee62-4a07-96d0-390a19cd4544"
      },
      "authored": "2021-04-06T11:33:34+00:00",
      "item": [ {
        "linkId": "Tx223272",
        "text": "SYSTEM_VHF",
        "answer": [ {
          "valueString": "*"
        } ]
      } ]
    }
  }, {
    "fullUrl": "urn:uuid:ca30f930-0bbd-48a7-83c5-4febbf76f97a",
    "resource": {
      "resourceType": "Questionnaire",
      "id": "ca30f930-0bbd-48a7-83c5-4febbf76f97a",
      "identifier": [ {
        "value": "59132"
      } ],
      "version": "2021-04-06T11:33:34.963Z",
      "status": "active",
      "experimental": false,
      "date": "2021-04-06T11:33:34+00:00",
      "publisher": "User ID: 'MCDONALDD' User name: 'Denzle McDonald' User skill set: 'T3'",
      "lastReviewDate": "2021-04-06",
      "subjectType": [ "Patient" ],
      "item": [ {
        "linkId": "59132",
        "prefix": "0",
        "text": "SYSTEM_VHF",
        "type": "choice",
        "required": true,
        "repeats": false,
        "option": [ {
          "valueString": "==\"vhf\", Selected: false"
        }, {
          "valueString": "*, Selected: true"
        } ]
      } ]
    }
  }, {
    "fullUrl": "urn:uuid:9410e9ce-ac39-4f63-84cb-73a9bfc69611",
    "resource": {
      "resourceType": "QuestionnaireResponse",
      "id": "9410e9ce-ac39-4f63-84cb-73a9bfc69611",
      "identifier": {
        "value": "59132"
      },
      "questionnaire": {
        "reference": "urn:uuid:748620c3-79f8-4e05-a648-7c9a49cc67c8"
      },
      "status": "completed",
      "subject": {
        "reference": "urn:uuid:2ee69256-43c3-4a40-af41-4e5e53be5043"
      },
      "context": {
        "reference": "urn:uuid:4073fef6-ee62-4a07-96d0-390a19cd4544"
      },
      "authored": "2021-04-06T11:33:34+00:00",
      "item": [ {
        "linkId": "Tx222416",
        "text": "Have you actually vomited?",
        "answer": [ {
          "valueString": "no"
        } ]
      } ]
    }
  }, {
    "fullUrl": "urn:uuid:748620c3-79f8-4e05-a648-7c9a49cc67c8",
    "resource": {
      "resourceType": "Questionnaire",
      "id": "748620c3-79f8-4e05-a648-7c9a49cc67c8",
      "identifier": [ {
        "value": "59132"
      } ],
      "version": "2021-04-06T11:33:34.963Z",
      "status": "active",
      "experimental": false,
      "date": "2021-04-06T11:33:34+00:00",
      "publisher": "User ID: 'MCDONALDD' User name: 'Denzle McDonald' User skill set: 'T3'",
      "lastReviewDate": "2021-04-06",
      "subjectType": [ "Patient" ],
      "item": [ {
        "linkId": "59132",
        "prefix": "30400",
        "text": "Have you actually vomited?",
        "type": "choice",
        "required": true,
        "repeats": false,
        "option": [ {
          "valueString": "yes, Selected: false"
        }, {
          "valueString": "not sure, Selected: false"
        }, {
          "valueString": "no, Selected: true"
        } ]
      } ]
    }
  }, {
    "fullUrl": "urn:uuid:93cef408-56dc-4172-81e5-ff03a7eb3855",
    "resource": {
      "resourceType": "QuestionnaireResponse",
      "id": "93cef408-56dc-4172-81e5-ff03a7eb3855",
      "identifier": {
        "value": "59132"
      },
      "questionnaire": {
        "reference": "urn:uuid:2e402e71-192b-40a1-8e9c-46d6f870c03d"
      },
      "status": "completed",
      "subject": {
        "reference": "urn:uuid:2ee69256-43c3-4a40-af41-4e5e53be5043"
      },
      "context": {
        "reference": "urn:uuid:4073fef6-ee62-4a07-96d0-390a19cd4544"
      },
      "authored": "2021-04-06T11:33:34+00:00",
      "item": [ {
        "linkId": "Tx220964",
        "text": "Have you got diarrhoea as well?",
        "answer": [ {
          "valueString": "no"
        } ]
      } ]
    }
  }, {
    "fullUrl": "urn:uuid:2e402e71-192b-40a1-8e9c-46d6f870c03d",
    "resource": {
      "resourceType": "Questionnaire",
      "id": "2e402e71-192b-40a1-8e9c-46d6f870c03d",
      "identifier": [ {
        "value": "59132"
      } ],
      "version": "2021-04-06T11:33:34.963Z",
      "status": "active",
      "experimental": false,
      "date": "2021-04-06T11:33:34+00:00",
      "publisher": "User ID: 'MCDONALDD' User name: 'Denzle McDonald' User skill set: 'T3'",
      "lastReviewDate": "2021-04-06",
      "subjectType": [ "Patient" ],
      "item": [ {
        "linkId": "59132",
        "prefix": "100",
        "text": "Have you got diarrhoea as well?",
        "type": "choice",
        "required": true,
        "repeats": false,
        "option": [ {
          "valueString": "yes, Selected: false"
        }, {
          "valueString": "not sure, Selected: false"
        }, {
          "valueString": "no, Selected: true"
        } ]
      } ]
    }
  }, {
    "fullUrl": "urn:uuid:d2174b9f-b6b8-4996-ad65-bde803583623",
    "resource": {
      "resourceType": "QuestionnaireResponse",
      "id": "d2174b9f-b6b8-4996-ad65-bde803583623",
      "identifier": {
        "value": "59132"
      },
      "questionnaire": {
        "reference": "urn:uuid:4ec05c20-5f92-4cb9-92d8-9f051e400d86"
      },
      "status": "completed",
      "subject": {
        "reference": "urn:uuid:2ee69256-43c3-4a40-af41-4e5e53be5043"
      },
      "context": {
        "reference": "urn:uuid:4073fef6-ee62-4a07-96d0-390a19cd4544"
      },
      "authored": "2021-04-06T11:33:34+00:00",
      "item": [ {
        "linkId": "Tx221277",
        "text": "Vomiting",
        "answer": [ {
          "valueString": "*"
        } ]
      } ]
    }
  }, {
    "fullUrl": "urn:uuid:4ec05c20-5f92-4cb9-92d8-9f051e400d86",
    "resource": {
      "resourceType": "Questionnaire",
      "id": "4ec05c20-5f92-4cb9-92d8-9f051e400d86",
      "identifier": [ {
        "value": "59132"
      } ],
      "version": "2021-04-06T11:33:34.963Z",
      "status": "active",
      "experimental": false,
      "date": "2021-04-06T11:33:34+00:00",
      "publisher": "User ID: 'MCDONALDD' User name: 'Denzle McDonald' User skill set: 'T3'",
      "lastReviewDate": "2021-04-06",
      "subjectType": [ "Patient" ],
      "item": [ {
        "linkId": "59132",
        "prefix": "400",
        "text": "Vomiting",
        "type": "choice",
        "required": true,
        "repeats": false,
        "option": [ {
          "valueString": "==\"present\", Selected: false"
        }, {
          "valueString": "*, Selected: true"
        } ]
      } ]
    }
  }, {
    "fullUrl": "urn:uuid:cc6e0b0b-825b-4155-b43e-5da09a32fa78",
    "resource": {
      "resourceType": "QuestionnaireResponse",
      "id": "cc6e0b0b-825b-4155-b43e-5da09a32fa78",
      "identifier": {
        "value": "59132"
      },
      "questionnaire": {
        "reference": "urn:uuid:c7ec80fa-7140-42a4-954a-7b5724e2bcd7"
      },
      "status": "completed",
      "subject": {
        "reference": "urn:uuid:2ee69256-43c3-4a40-af41-4e5e53be5043"
      },
      "context": {
        "reference": "urn:uuid:4073fef6-ee62-4a07-96d0-390a19cd4544"
      },
      "authored": "2021-04-06T11:33:34+00:00",
      "item": [ {
        "linkId": "Tx221183",
        "text": "Did the symptoms come on after drinking alcohol?",
        "answer": [ {
          "valueString": "no"
        } ]
      } ]
    }
  }, {
    "fullUrl": "urn:uuid:c7ec80fa-7140-42a4-954a-7b5724e2bcd7",
    "resource": {
      "resourceType": "Questionnaire",
      "id": "c7ec80fa-7140-42a4-954a-7b5724e2bcd7",
      "identifier": [ {
        "value": "59132"
      } ],
      "version": "2021-04-06T11:33:34.963Z",
      "status": "active",
      "experimental": false,
      "date": "2021-04-06T11:33:34+00:00",
      "publisher": "User ID: 'MCDONALDD' User name: 'Denzle McDonald' User skill set: 'T3'",
      "lastReviewDate": "2021-04-06",
      "subjectType": [ "Patient" ],
      "item": [ {
        "linkId": "59132",
        "prefix": "300",
        "text": "Did the symptoms come on after drinking alcohol?",
        "type": "choice",
        "required": true,
        "repeats": false,
        "option": [ {
          "valueString": "yes, Selected: false"
        }, {
          "valueString": "not sure, Selected: false"
        }, {
          "valueString": "no, Selected: true"
        } ]
      } ]
    }
  }, {
    "fullUrl": "urn:uuid:d014d9ad-63fb-4653-9d4b-6d97df15161b",
    "resource": {
      "resourceType": "QuestionnaireResponse",
      "id": "d014d9ad-63fb-4653-9d4b-6d97df15161b",
      "identifier": {
        "value": "59132"
      },
      "questionnaire": {
        "reference": "urn:uuid:7efc8089-936f-4e7d-9e42-df4ee36be2a3"
      },
      "status": "completed",
      "subject": {
        "reference": "urn:uuid:2ee69256-43c3-4a40-af41-4e5e53be5043"
      },
      "context": {
        "reference": "urn:uuid:4073fef6-ee62-4a07-96d0-390a19cd4544"
      },
      "authored": "2021-04-06T11:33:34+00:00",
      "item": [ {
        "linkId": "Tx221277",
        "text": "Vomiting",
        "answer": [ {
          "valueString": "*"
        } ]
      } ]
    }
  }, {
    "fullUrl": "urn:uuid:7efc8089-936f-4e7d-9e42-df4ee36be2a3",
    "resource": {
      "resourceType": "Questionnaire",
      "id": "7efc8089-936f-4e7d-9e42-df4ee36be2a3",
      "identifier": [ {
        "value": "59132"
      } ],
      "version": "2021-04-06T11:33:34.963Z",
      "status": "active",
      "experimental": false,
      "date": "2021-04-06T11:33:34+00:00",
      "publisher": "User ID: 'MCDONALDD' User name: 'Denzle McDonald' User skill set: 'T3'",
      "lastReviewDate": "2021-04-06",
      "subjectType": [ "Patient" ],
      "item": [ {
        "linkId": "59132",
        "prefix": "1000",
        "text": "Vomiting",
        "type": "choice",
        "required": true,
        "repeats": false,
        "option": [ {
          "valueString": "==\"present\", Selected: false"
        }, {
          "valueString": "*, Selected: true"
        } ]
      } ]
    }
  }, {
    "fullUrl": "urn:uuid:1303ccab-1647-4838-bfcb-14c2af278763",
    "resource": {
      "resourceType": "QuestionnaireResponse",
      "id": "1303ccab-1647-4838-bfcb-14c2af278763",
      "identifier": {
        "value": "59132"
      },
      "questionnaire": {
        "reference": "urn:uuid:d0d800fa-160c-4eab-a42c-b1e01b025cad"
      },
      "status": "completed",
      "subject": {
        "reference": "urn:uuid:2ee69256-43c3-4a40-af41-4e5e53be5043"
      },
      "context": {
        "reference": "urn:uuid:4073fef6-ee62-4a07-96d0-390a19cd4544"
      },
      "authored": "2021-04-06T11:33:34+00:00",
      "item": [ {
        "linkId": "Tx220825",
        "text": "Have you also got any pain in the abdomen?",
        "answer": [ {
          "valueString": "yes"
        } ]
      } ]
    }
  }, {
    "fullUrl": "urn:uuid:d0d800fa-160c-4eab-a42c-b1e01b025cad",
    "resource": {
      "resourceType": "Questionnaire",
      "id": "d0d800fa-160c-4eab-a42c-b1e01b025cad",
      "identifier": [ {
        "value": "59132"
      } ],
      "version": "2021-04-06T11:33:34.963Z",
      "status": "active",
      "experimental": false,
      "date": "2021-04-06T11:33:34+00:00",
      "publisher": "User ID: 'MCDONALDD' User name: 'Denzle McDonald' User skill set: 'T3'",
      "lastReviewDate": "2021-04-06",
      "subjectType": [ "Patient" ],
      "item": [ {
        "linkId": "59132",
        "prefix": "1500",
        "text": "Have you also got any pain in the abdomen?",
        "type": "choice",
        "required": true,
        "repeats": false,
        "option": [ {
          "valueString": "yes, Selected: true"
        }, {
          "valueString": "not sure, Selected: false"
        }, {
          "valueString": "no, Selected: false"
        } ]
      } ]
    }
  }, {
    "fullUrl": "urn:uuid:9c1f214e-52dd-4f08-b0de-dd80e66a506a",
    "resource": {
      "resourceType": "QuestionnaireResponse",
      "id": "9c1f214e-52dd-4f08-b0de-dd80e66a506a",
      "identifier": {
        "value": "59132"
      },
      "questionnaire": {
        "reference": "urn:uuid:aeb3c989-9770-4434-8ee2-e7226af5f689"
      },
      "status": "completed",
      "subject": {
        "reference": "urn:uuid:2ee69256-43c3-4a40-af41-4e5e53be5043"
      },
      "context": {
        "reference": "urn:uuid:4073fef6-ee62-4a07-96d0-390a19cd4544"
      },
      "authored": "2021-04-06T11:33:34+00:00",
      "item": [ {
        "linkId": "Tx224927",
        "text": "STRING:VomitingAnd/OrNauseaWithAbdominalPainPW",
        "answer": [ {
          "valueString": "\"present\""
        } ]
      } ]
    }
  }, {
    "fullUrl": "urn:uuid:aeb3c989-9770-4434-8ee2-e7226af5f689",
    "resource": {
      "resourceType": "Questionnaire",
      "id": "aeb3c989-9770-4434-8ee2-e7226af5f689",
      "identifier": [ {
        "value": "59132"
      } ],
      "version": "2021-04-06T11:33:34.963Z",
      "status": "active",
      "experimental": false,
      "date": "2021-04-06T11:33:34+00:00",
      "publisher": "User ID: 'MCDONALDD' User name: 'Denzle McDonald' User skill set: 'T3'",
      "lastReviewDate": "2021-04-06",
      "subjectType": [ "Patient" ],
      "item": [ {
        "linkId": "59132",
        "prefix": "64600",
        "text": "STRING:VomitingAnd/OrNauseaWithAbdominalPainPW",
        "type": "choice",
        "required": true,
        "repeats": false,
        "option": [ {
          "valueString": "\"present\", Selected: true"
        } ]
      } ]
    }
  }, {
    "fullUrl": "urn:uuid:0b491558-ce03-40cc-8860-4cfd4d5af403",
    "resource": {
      "resourceType": "QuestionnaireResponse",
      "id": "0b491558-ce03-40cc-8860-4cfd4d5af403",
      "identifier": {
        "value": "59132"
      },
      "questionnaire": {
        "reference": "urn:uuid:0936b61e-ec45-4b76-a1ea-de915b98e008"
      },
      "status": "completed",
      "subject": {
        "reference": "urn:uuid:2ee69256-43c3-4a40-af41-4e5e53be5043"
      },
      "context": {
        "reference": "urn:uuid:4073fef6-ee62-4a07-96d0-390a19cd4544"
      },
      "authored": "2021-04-06T11:33:34+00:00",
      "item": [ {
        "linkId": "Tx224907",
        "text": "STRING:GITSymptomWithAbdominalPain",
        "answer": [ {
          "valueString": "\"present\""
        } ]
      } ]
    }
  }, {
    "fullUrl": "urn:uuid:0936b61e-ec45-4b76-a1ea-de915b98e008",
    "resource": {
      "resourceType": "Questionnaire",
      "id": "0936b61e-ec45-4b76-a1ea-de915b98e008",
      "identifier": [ {
        "value": "59132"
      } ],
      "version": "2021-04-06T11:33:34.963Z",
      "status": "active",
      "experimental": false,
      "date": "2021-04-06T11:33:34+00:00",
      "publisher": "User ID: 'MCDONALDD' User name: 'Denzle McDonald' User skill set: 'T3'",
      "lastReviewDate": "2021-04-06",
      "subjectType": [ "Patient" ],
      "item": [ {
        "linkId": "59132",
        "prefix": "64700",
        "text": "STRING:GITSymptomWithAbdominalPain",
        "type": "choice",
        "required": true,
        "repeats": false,
        "option": [ {
          "valueString": "\"present\", Selected: true"
        } ]
      } ]
    }
  }, {
    "fullUrl": "urn:uuid:ed558683-5039-4425-ab9b-505fc1e2e84a",
    "resource": {
      "resourceType": "QuestionnaireResponse",
      "id": "ed558683-5039-4425-ab9b-505fc1e2e84a",
      "identifier": {
        "value": "59132"
      },
      "questionnaire": {
        "reference": "urn:uuid:b0989dab-42a2-4b02-acfe-3e2d97069d6b"
      },
      "status": "completed",
      "subject": {
        "reference": "urn:uuid:2ee69256-43c3-4a40-af41-4e5e53be5043"
      },
      "context": {
        "reference": "urn:uuid:4073fef6-ee62-4a07-96d0-390a19cd4544"
      },
      "authored": "2021-04-06T11:33:34+00:00"
    }
  }, {
    "fullUrl": "urn:uuid:b0989dab-42a2-4b02-acfe-3e2d97069d6b",
    "resource": {
      "resourceType": "Questionnaire",
      "id": "b0989dab-42a2-4b02-acfe-3e2d97069d6b",
      "identifier": [ {
        "value": "59132"
      } ],
      "version": "2021-04-06T11:33:34.963Z",
      "status": "active",
      "experimental": false,
      "date": "2021-04-06T11:33:34+00:00",
      "publisher": "User ID: 'MCDONALDD' User name: 'Denzle McDonald' User skill set: 'T3'",
      "lastReviewDate": "2021-04-06",
      "subjectType": [ "Patient" ]
    }
  }, {
    "fullUrl": "urn:uuid:c6ee1def-8b79-4407-9a85-fc5216af1d8a",
    "resource": {
      "resourceType": "QuestionnaireResponse",
      "id": "c6ee1def-8b79-4407-9a85-fc5216af1d8a",
      "identifier": {
        "value": "59132"
      },
      "questionnaire": {
        "reference": "urn:uuid:a17e5bb8-e9c2-4432-8a6f-8b023b46c0b6"
      },
      "status": "completed",
      "subject": {
        "reference": "urn:uuid:2ee69256-43c3-4a40-af41-4e5e53be5043"
      },
      "context": {
        "reference": "urn:uuid:4073fef6-ee62-4a07-96d0-390a19cd4544"
      },
      "authored": "2021-04-06T11:33:34+00:00",
      "item": [ {
        "linkId": "Tx221039",
        "text": "PATIENT_AGEGROUP",
        "answer": [ {
          "valueString": "==\"CHILD\""
        } ]
      } ]
    }
  }, {
    "fullUrl": "urn:uuid:a17e5bb8-e9c2-4432-8a6f-8b023b46c0b6",
    "resource": {
      "resourceType": "Questionnaire",
      "id": "a17e5bb8-e9c2-4432-8a6f-8b023b46c0b6",
      "identifier": [ {
        "value": "59132"
      } ],
      "version": "2021-04-06T11:33:34.963Z",
      "status": "active",
      "experimental": false,
      "date": "2021-04-06T11:33:34+00:00",
      "publisher": "User ID: 'MCDONALDD' User name: 'Denzle McDonald' User skill set: 'T3'",
      "lastReviewDate": "2021-04-06",
      "subjectType": [ "Patient" ],
      "item": [ {
        "linkId": "59132",
        "prefix": "0",
        "text": "PATIENT_AGEGROUP",
        "type": "choice",
        "required": true,
        "repeats": false,
        "option": [ {
          "valueString": "==\"ADULT\", Selected: false"
        }, {
          "valueString": "==\"CHILD\", Selected: true"
        }, {
          "valueString": "==\"TODDLER\", Selected: false"
        }, {
          "valueString": "==\"INFANT\", Selected: false"
        }, {
          "valueString": "==\"NEONATE\", Selected: false"
        }, {
          "valueString": "*, Selected: false"
        } ]
      } ]
    }
  }, {
    "fullUrl": "urn:uuid:1b3e0c8b-6910-4d25-ba71-5c8223ba7574",
    "resource": {
      "resourceType": "QuestionnaireResponse",
      "id": "1b3e0c8b-6910-4d25-ba71-5c8223ba7574",
      "identifier": {
        "value": "59132"
      },
      "questionnaire": {
        "reference": "urn:uuid:4da91853-a6bd-4e30-b705-577d80aee7b7"
      },
      "status": "completed",
      "subject": {
        "reference": "urn:uuid:2ee69256-43c3-4a40-af41-4e5e53be5043"
      },
      "context": {
        "reference": "urn:uuid:4073fef6-ee62-4a07-96d0-390a19cd4544"
      },
      "authored": "2021-04-06T11:33:34+00:00",
      "item": [ {
        "linkId": "Tx224919",
        "text": "PATIENT_AGE",
        "answer": [ {
          "valueString": "<11"
        } ]
      } ]
    }
  }, {
    "fullUrl": "urn:uuid:4da91853-a6bd-4e30-b705-577d80aee7b7",
    "resource": {
      "resourceType": "Questionnaire",
      "id": "4da91853-a6bd-4e30-b705-577d80aee7b7",
      "identifier": [ {
        "value": "59132"
      } ],
      "version": "2021-04-06T11:33:34.963Z",
      "status": "active",
      "experimental": false,
      "date": "2021-04-06T11:33:34+00:00",
      "publisher": "User ID: 'MCDONALDD' User name: 'Denzle McDonald' User skill set: 'T3'",
      "lastReviewDate": "2021-04-06",
      "subjectType": [ "Patient" ],
      "item": [ {
        "linkId": "59132",
        "prefix": "15300",
        "text": "PATIENT_AGE",
        "type": "choice",
        "required": true,
        "repeats": false,
        "option": [ {
          "valueString": "<11, Selected: true"
        }, {
          "valueString": "<13, Selected: false"
        }, {
          "valueString": ">=13, Selected: false"
        }, {
          "valueString": "*, Selected: false"
        } ]
      } ]
    }
  }, {
    "fullUrl": "urn:uuid:d291a7e0-0e13-480a-b87d-fbfb9ab7046c",
    "resource": {
      "resourceType": "QuestionnaireResponse",
      "id": "d291a7e0-0e13-480a-b87d-fbfb9ab7046c",
      "identifier": {
        "value": "59132"
      },
      "questionnaire": {
        "reference": "urn:uuid:c84b289f-344f-427a-9c84-2f403943b892"
      },
      "status": "completed",
      "subject": {
        "reference": "urn:uuid:2ee69256-43c3-4a40-af41-4e5e53be5043"
      },
      "context": {
        "reference": "urn:uuid:4073fef6-ee62-4a07-96d0-390a19cd4544"
      },
      "authored": "2021-04-06T11:33:34+00:00",
      "item": [ {
        "linkId": "Tx224498",
        "text": "STRING:Under11",
        "answer": [ {
          "valueString": "\"present\""
        } ]
      } ]
    }
  }, {
    "fullUrl": "urn:uuid:c84b289f-344f-427a-9c84-2f403943b892",
    "resource": {
      "resourceType": "Questionnaire",
      "id": "c84b289f-344f-427a-9c84-2f403943b892",
      "identifier": [ {
        "value": "59132"
      } ],
      "version": "2021-04-06T11:33:34.963Z",
      "status": "active",
      "experimental": false,
      "date": "2021-04-06T11:33:34+00:00",
      "publisher": "User ID: 'MCDONALDD' User name: 'Denzle McDonald' User skill set: 'T3'",
      "lastReviewDate": "2021-04-06",
      "subjectType": [ "Patient" ],
      "item": [ {
        "linkId": "59132",
        "prefix": "14800",
        "text": "STRING:Under11",
        "type": "choice",
        "required": true,
        "repeats": false,
        "option": [ {
          "valueString": "\"present\", Selected: true"
        } ]
      } ]
    }
  }, {
    "fullUrl": "urn:uuid:a3e2cd1d-1b48-4085-88f8-b7a062cc1b47",
    "resource": {
      "resourceType": "QuestionnaireResponse",
      "id": "a3e2cd1d-1b48-4085-88f8-b7a062cc1b47",
      "identifier": {
        "value": "59132"
      },
      "questionnaire": {
        "reference": "urn:uuid:8ae0962b-291e-4c32-a666-4bf7cad14f25"
      },
      "status": "completed",
      "subject": {
        "reference": "urn:uuid:2ee69256-43c3-4a40-af41-4e5e53be5043"
      },
      "context": {
        "reference": "urn:uuid:4073fef6-ee62-4a07-96d0-390a19cd4544"
      },
      "authored": "2021-04-06T11:33:34+00:00",
      "item": [ {
        "linkId": "Tx224906",
        "text": "AbdominalPainPW",
        "answer": [ {
          "valueString": "*"
        } ]
      } ]
    }
  }, {
    "fullUrl": "urn:uuid:8ae0962b-291e-4c32-a666-4bf7cad14f25",
    "resource": {
      "resourceType": "Questionnaire",
      "id": "8ae0962b-291e-4c32-a666-4bf7cad14f25",
      "identifier": [ {
        "value": "59132"
      } ],
      "version": "2021-04-06T11:33:34.963Z",
      "status": "active",
      "experimental": false,
      "date": "2021-04-06T11:33:34+00:00",
      "publisher": "User ID: 'MCDONALDD' User name: 'Denzle McDonald' User skill set: 'T3'",
      "lastReviewDate": "2021-04-06",
      "subjectType": [ "Patient" ],
      "item": [ {
        "linkId": "59132",
        "prefix": "15600",
        "text": "AbdominalPainPW",
        "type": "choice",
        "required": true,
        "repeats": false,
        "option": [ {
          "valueString": "==\"present\", Selected: false"
        }, {
          "valueString": "*, Selected: true"
        } ]
      } ]
    }
  }, {
    "fullUrl": "urn:uuid:7a49676b-c515-4b46-8be0-ac7f42d58451",
    "resource": {
      "resourceType": "QuestionnaireResponse",
      "id": "7a49676b-c515-4b46-8be0-ac7f42d58451",
      "identifier": {
        "value": "59132"
      },
      "questionnaire": {
        "reference": "urn:uuid:2ae559fe-19f2-4feb-b0e3-a35cc13d4fc8"
      },
      "status": "completed",
      "subject": {
        "reference": "urn:uuid:2ee69256-43c3-4a40-af41-4e5e53be5043"
      },
      "context": {
        "reference": "urn:uuid:4073fef6-ee62-4a07-96d0-390a19cd4544"
      },
      "authored": "2021-04-06T11:33:34+00:00",
      "item": [ {
        "linkId": "Tx225151",
        "text": "RectalBleedingwithAbdominalPainPW",
        "answer": [ {
          "valueString": "*"
        } ]
      } ]
    }
  }, {
    "fullUrl": "urn:uuid:2ae559fe-19f2-4feb-b0e3-a35cc13d4fc8",
    "resource": {
      "resourceType": "Questionnaire",
      "id": "2ae559fe-19f2-4feb-b0e3-a35cc13d4fc8",
      "identifier": [ {
        "value": "59132"
      } ],
      "version": "2021-04-06T11:33:34.963Z",
      "status": "active",
      "experimental": false,
      "date": "2021-04-06T11:33:34+00:00",
      "publisher": "User ID: 'MCDONALDD' User name: 'Denzle McDonald' User skill set: 'T3'",
      "lastReviewDate": "2021-04-06",
      "subjectType": [ "Patient" ],
      "item": [ {
        "linkId": "59132",
        "prefix": "21300",
        "text": "RectalBleedingwithAbdominalPainPW",
        "type": "choice",
        "required": true,
        "repeats": false,
        "option": [ {
          "valueString": "==\"present\", Selected: false"
        }, {
          "valueString": "*, Selected: true"
        } ]
      } ]
    }
  }, {
    "fullUrl": "urn:uuid:b1929a48-5cf6-4ab3-afbd-fc93592fbf22",
    "resource": {
      "resourceType": "QuestionnaireResponse",
      "id": "b1929a48-5cf6-4ab3-afbd-fc93592fbf22",
      "identifier": {
        "value": "59132"
      },
      "questionnaire": {
        "reference": "urn:uuid:88fbea59-30a0-45d5-91e5-4e04d238469c"
      },
      "status": "completed",
      "subject": {
        "reference": "urn:uuid:2ee69256-43c3-4a40-af41-4e5e53be5043"
      },
      "context": {
        "reference": "urn:uuid:4073fef6-ee62-4a07-96d0-390a19cd4544"
      },
      "authored": "2021-04-06T11:33:34+00:00",
      "item": [ {
        "linkId": "Tx224908",
        "text": "GITSymptomWithAbdominalPain",
        "answer": [ {
          "valueString": "==\"present\""
        } ]
      } ]
    }
  }, {
    "fullUrl": "urn:uuid:88fbea59-30a0-45d5-91e5-4e04d238469c",
    "resource": {
      "resourceType": "Questionnaire",
      "id": "88fbea59-30a0-45d5-91e5-4e04d238469c",
      "identifier": [ {
        "value": "59132"
      } ],
      "version": "2021-04-06T11:33:34.963Z",
      "status": "active",
      "experimental": false,
      "date": "2021-04-06T11:33:34+00:00",
      "publisher": "User ID: 'MCDONALDD' User name: 'Denzle McDonald' User skill set: 'T3'",
      "lastReviewDate": "2021-04-06",
      "subjectType": [ "Patient" ],
      "item": [ {
        "linkId": "59132",
        "prefix": "15700",
        "text": "GITSymptomWithAbdominalPain",
        "type": "choice",
        "required": true,
        "repeats": false,
        "option": [ {
          "valueString": "==\"present\", Selected: true"
        }, {
          "valueString": "*, Selected: false"
        } ]
      } ]
    }
  }, {
    "fullUrl": "urn:uuid:8f757cce-b8e5-4c57-a906-5560fe872626",
    "resource": {
      "resourceType": "QuestionnaireResponse",
      "id": "8f757cce-b8e5-4c57-a906-5560fe872626",
      "identifier": {
        "value": "59132"
      },
      "questionnaire": {
        "reference": "urn:uuid:d87267f2-8d98-4918-8e0c-0b154e28ab34"
      },
      "status": "completed",
      "subject": {
        "reference": "urn:uuid:2ee69256-43c3-4a40-af41-4e5e53be5043"
      },
      "context": {
        "reference": "urn:uuid:4073fef6-ee62-4a07-96d0-390a19cd4544"
      },
      "authored": "2021-04-06T11:33:34+00:00"
    }
  }, {
    "fullUrl": "urn:uuid:d87267f2-8d98-4918-8e0c-0b154e28ab34",
    "resource": {
      "resourceType": "Questionnaire",
      "id": "d87267f2-8d98-4918-8e0c-0b154e28ab34",
      "identifier": [ {
        "value": "59132"
      } ],
      "version": "2021-04-06T11:33:34.963Z",
      "status": "active",
      "experimental": false,
      "date": "2021-04-06T11:33:34+00:00",
      "publisher": "User ID: 'MCDONALDD' User name: 'Denzle McDonald' User skill set: 'T3'",
      "lastReviewDate": "2021-04-06",
      "subjectType": [ "Patient" ]
    }
  }, {
    "fullUrl": "urn:uuid:14706a54-a3de-476e-a645-0da914907cd6",
    "resource": {
      "resourceType": "QuestionnaireResponse",
      "id": "14706a54-a3de-476e-a645-0da914907cd6",
      "identifier": {
        "value": "59132"
      },
      "questionnaire": {
        "reference": "urn:uuid:5c4141bb-ebb7-4d6d-8115-d8c08ee75d56"
      },
      "status": "completed",
      "subject": {
        "reference": "urn:uuid:2ee69256-43c3-4a40-af41-4e5e53be5043"
      },
      "context": {
        "reference": "urn:uuid:4073fef6-ee62-4a07-96d0-390a19cd4544"
      },
      "authored": "2021-04-06T11:33:34+00:00",
      "item": [ {
        "linkId": "Tx221039",
        "text": "PATIENT_AGEGROUP",
        "answer": [ {
          "valueString": "==\"CHILD\""
        } ]
      } ]
    }
  }, {
    "fullUrl": "urn:uuid:5c4141bb-ebb7-4d6d-8115-d8c08ee75d56",
    "resource": {
      "resourceType": "Questionnaire",
      "id": "5c4141bb-ebb7-4d6d-8115-d8c08ee75d56",
      "identifier": [ {
        "value": "59132"
      } ],
      "version": "2021-04-06T11:33:34.963Z",
      "status": "active",
      "experimental": false,
      "date": "2021-04-06T11:33:34+00:00",
      "publisher": "User ID: 'MCDONALDD' User name: 'Denzle McDonald' User skill set: 'T3'",
      "lastReviewDate": "2021-04-06",
      "subjectType": [ "Patient" ],
      "item": [ {
        "linkId": "59132",
        "prefix": "0",
        "text": "PATIENT_AGEGROUP",
        "type": "choice",
        "required": true,
        "repeats": false,
        "option": [ {
          "valueString": "==\"ADULT\", Selected: false"
        }, {
          "valueString": "==\"CHILD\", Selected: true"
        }, {
          "valueString": "==\"TODDLER\", Selected: false"
        }, {
          "valueString": "==\"INFANT\", Selected: false"
        }, {
          "valueString": "==\"NEONATE\", Selected: false"
        }, {
          "valueString": "*, Selected: false"
        } ]
      } ]
    }
  }, {
    "fullUrl": "urn:uuid:93e2ab51-2991-478d-aae7-02caf1a83d3c",
    "resource": {
      "resourceType": "QuestionnaireResponse",
      "id": "93e2ab51-2991-478d-aae7-02caf1a83d3c",
      "identifier": {
        "value": "59132"
      },
      "questionnaire": {
        "reference": "urn:uuid:b159de06-adbd-4c13-aaeb-22bc33fe3bae"
      },
      "status": "completed",
      "subject": {
        "reference": "urn:uuid:2ee69256-43c3-4a40-af41-4e5e53be5043"
      },
      "context": {
        "reference": "urn:uuid:4073fef6-ee62-4a07-96d0-390a19cd4544"
      },
      "authored": "2021-04-06T11:33:34+00:00",
      "item": [ {
        "linkId": "Tx220156",
        "text": "How bad is the pain?",
        "answer": [ {
          "valueString": "bad enough to interfere with normal activity"
        } ]
      } ]
    }
  }, {
    "fullUrl": "urn:uuid:b159de06-adbd-4c13-aaeb-22bc33fe3bae",
    "resource": {
      "resourceType": "Questionnaire",
      "id": "b159de06-adbd-4c13-aaeb-22bc33fe3bae",
      "identifier": [ {
        "value": "59132"
      } ],
      "version": "2021-04-06T11:33:34.963Z",
      "status": "active",
      "experimental": false,
      "date": "2021-04-06T11:33:34+00:00",
      "publisher": "User ID: 'MCDONALDD' User name: 'Denzle McDonald' User skill set: 'T3'",
      "lastReviewDate": "2021-04-06",
      "subjectType": [ "Patient" ],
      "item": [ {
        "linkId": "59132",
        "prefix": "6500",
        "text": "How bad is the pain?",
        "type": "choice",
        "required": true,
        "repeats": false,
        "option": [ {
          "valueString": "so bad that doing anything is impossible, Selected: false"
        }, {
          "valueString": "bad enough to interfere with normal activity, Selected: true"
        }, {
          "valueString": "neither of the above, Selected: false"
        } ]
      } ]
    }
  }, {
    "fullUrl": "urn:uuid:ae05c68c-5dec-48a5-b75b-d59c0c5c2c81",
    "resource": {
      "resourceType": "QuestionnaireResponse",
      "id": "ae05c68c-5dec-48a5-b75b-d59c0c5c2c81",
      "identifier": {
        "value": "59132"
      },
      "questionnaire": {
        "reference": "urn:uuid:ceccc797-97b4-4005-8789-a34f7a451e42"
      },
      "status": "completed",
      "subject": {
        "reference": "urn:uuid:2ee69256-43c3-4a40-af41-4e5e53be5043"
      },
      "context": {
        "reference": "urn:uuid:4073fef6-ee62-4a07-96d0-390a19cd4544"
      },
      "authored": "2021-04-06T11:33:34+00:00",
      "item": [ {
        "linkId": "Tx224664",
        "text": "STRING:ModeratePain",
        "answer": [ {
          "valueString": "\"present\""
        } ]
      } ]
    }
  }, {
    "fullUrl": "urn:uuid:ceccc797-97b4-4005-8789-a34f7a451e42",
    "resource": {
      "resourceType": "Questionnaire",
      "id": "ceccc797-97b4-4005-8789-a34f7a451e42",
      "identifier": [ {
        "value": "59132"
      } ],
      "version": "2021-04-06T11:33:34.963Z",
      "status": "active",
      "experimental": false,
      "date": "2021-04-06T11:33:34+00:00",
      "publisher": "User ID: 'MCDONALDD' User name: 'Denzle McDonald' User skill set: 'T3'",
      "lastReviewDate": "2021-04-06",
      "subjectType": [ "Patient" ],
      "item": [ {
        "linkId": "59132",
        "prefix": "6600",
        "text": "STRING:ModeratePain",
        "type": "choice",
        "required": true,
        "repeats": false,
        "option": [ {
          "valueString": "\"present\", Selected: true"
        } ]
      } ]
    }
  }, {
    "fullUrl": "urn:uuid:dd90046a-ed2c-492a-84c3-a05cc8534dad",
    "resource": {
      "resourceType": "QuestionnaireResponse",
      "id": "dd90046a-ed2c-492a-84c3-a05cc8534dad",
      "identifier": {
        "value": "59132"
      },
      "questionnaire": {
        "reference": "urn:uuid:cdce3230-808f-427a-98bb-e803ccdabcf3"
      },
      "status": "completed",
      "subject": {
        "reference": "urn:uuid:2ee69256-43c3-4a40-af41-4e5e53be5043"
      },
      "context": {
        "reference": "urn:uuid:4073fef6-ee62-4a07-96d0-390a19cd4544"
      },
      "authored": "2021-04-06T11:33:34+00:00",
      "item": [ {
        "linkId": "Tx170003",
        "text": "PATIENT_PARTY",
        "answer": [ {
          "valueString": "==1"
        } ]
      } ]
    }
  }, {
    "fullUrl": "urn:uuid:cdce3230-808f-427a-98bb-e803ccdabcf3",
    "resource": {
      "resourceType": "Questionnaire",
      "id": "cdce3230-808f-427a-98bb-e803ccdabcf3",
      "identifier": [ {
        "value": "59132"
      } ],
      "version": "2021-04-06T11:33:34.963Z",
      "status": "active",
      "experimental": false,
      "date": "2021-04-06T11:33:34+00:00",
      "publisher": "User ID: 'MCDONALDD' User name: 'Denzle McDonald' User skill set: 'T3'",
      "lastReviewDate": "2021-04-06",
      "subjectType": [ "Patient" ],
      "item": [ {
        "linkId": "59132",
        "prefix": "6800",
        "text": "PATIENT_PARTY",
        "type": "choice",
        "required": true,
        "repeats": false,
        "option": [ {
          "valueString": "==1, Selected: true"
        }, {
          "valueString": "==3, Selected: false"
        }, {
          "valueString": "*, Selected: false"
        } ]
      } ]
    }
  }, {
    "fullUrl": "urn:uuid:776d9971-5ce7-4224-a1af-ed2ea3d433f8",
    "resource": {
      "resourceType": "QuestionnaireResponse",
      "id": "776d9971-5ce7-4224-a1af-ed2ea3d433f8",
      "identifier": {
        "value": "59132"
      },
      "questionnaire": {
        "reference": "urn:uuid:2e0d83eb-e8f8-49e2-8db0-f4d1420592e8"
      },
      "status": "completed",
      "subject": {
        "reference": "urn:uuid:2ee69256-43c3-4a40-af41-4e5e53be5043"
      },
      "context": {
        "reference": "urn:uuid:4073fef6-ee62-4a07-96d0-390a19cd4544"
      },
      "authored": "2021-04-06T11:33:34+00:00",
      "item": [ {
        "linkId": "Tx224190",
        "text": "Are you so ill that you have stopped doing ALL of your usual activities?",
        "answer": [ {
          "valueString": "no - well enough to do MOST or all activities"
        } ]
      } ]
    }
  }, {
    "fullUrl": "urn:uuid:2e0d83eb-e8f8-49e2-8db0-f4d1420592e8",
    "resource": {
      "resourceType": "Questionnaire",
      "id": "2e0d83eb-e8f8-49e2-8db0-f4d1420592e8",
      "identifier": [ {
        "value": "59132"
      } ],
      "version": "2021-04-06T11:33:34.963Z",
      "status": "active",
      "experimental": false,
      "date": "2021-04-06T11:33:34+00:00",
      "publisher": "User ID: 'MCDONALDD' User name: 'Denzle McDonald' User skill set: 'T3'",
      "lastReviewDate": "2021-04-06",
      "subjectType": [ "Patient" ],
      "item": [ {
        "linkId": "59132",
        "prefix": "6900",
        "text": "Are you so ill that you have stopped doing ALL of your usual activities?",
        "type": "choice",
        "required": true,
        "repeats": false,
        "option": [ {
          "valueString": "yes - so ill they have stopped doing ALL normal activities, Selected: false"
        }, {
          "valueString": "no - unwell but able to do SOME normal activities, Selected: false"
        }, {
          "valueString": "no - well enough to do MOST or all activities, Selected: true"
        } ]
      } ]
    }
  }, {
    "fullUrl": "urn:uuid:7680ce2f-6173-4015-a6c1-508d41325de4",
    "resource": {
      "resourceType": "QuestionnaireResponse",
      "id": "7680ce2f-6173-4015-a6c1-508d41325de4",
      "identifier": {
        "value": "59132"
      },
      "questionnaire": {
        "reference": "urn:uuid:fa0f8b0e-713f-4049-b77c-f1b371fc330c"
      },
      "status": "completed",
      "subject": {
        "reference": "urn:uuid:2ee69256-43c3-4a40-af41-4e5e53be5043"
      },
      "context": {
        "reference": "urn:uuid:4073fef6-ee62-4a07-96d0-390a19cd4544"
      },
      "authored": "2021-04-06T11:33:34+00:00",
      "item": [ {
        "linkId": "Tx224916",
        "text": "FlankPainPW",
        "answer": [ {
          "valueString": "*"
        } ]
      } ]
    }
  }, {
    "fullUrl": "urn:uuid:fa0f8b0e-713f-4049-b77c-f1b371fc330c",
    "resource": {
      "resourceType": "Questionnaire",
      "id": "fa0f8b0e-713f-4049-b77c-f1b371fc330c",
      "identifier": [ {
        "value": "59132"
      } ],
      "version": "2021-04-06T11:33:34.963Z",
      "status": "active",
      "experimental": false,
      "date": "2021-04-06T11:33:34+00:00",
      "publisher": "User ID: 'MCDONALDD' User name: 'Denzle McDonald' User skill set: 'T3'",
      "lastReviewDate": "2021-04-06",
      "subjectType": [ "Patient" ],
      "item": [ {
        "linkId": "59132",
        "prefix": "26500",
        "text": "FlankPainPW",
        "type": "choice",
        "required": true,
        "repeats": false,
        "option": [ {
          "valueString": "==\"present\", Selected: false"
        }, {
          "valueString": "*, Selected: true"
        } ]
      } ]
    }
  }, {
    "fullUrl": "urn:uuid:23711fab-e2f9-4cf9-974d-170507199231",
    "resource": {
      "resourceType": "QuestionnaireResponse",
      "id": "23711fab-e2f9-4cf9-974d-170507199231",
      "identifier": {
        "value": "59132"
      },
      "questionnaire": {
        "reference": "urn:uuid:c48bce88-5ccf-45c7-9d13-48829674b12b"
      },
      "status": "completed",
      "subject": {
        "reference": "urn:uuid:2ee69256-43c3-4a40-af41-4e5e53be5043"
      },
      "context": {
        "reference": "urn:uuid:4073fef6-ee62-4a07-96d0-390a19cd4544"
      },
      "authored": "2021-04-06T11:33:34+00:00",
      "item": [ {
        "linkId": "Tx222766",
        "text": "PregnancyOver20Weeks",
        "answer": [ {
          "valueString": "*"
        } ]
      } ]
    }
  }, {
    "fullUrl": "urn:uuid:c48bce88-5ccf-45c7-9d13-48829674b12b",
    "resource": {
      "resourceType": "Questionnaire",
      "id": "c48bce88-5ccf-45c7-9d13-48829674b12b",
      "identifier": [ {
        "value": "59132"
      } ],
      "version": "2021-04-06T11:33:34.963Z",
      "status": "active",
      "experimental": false,
      "date": "2021-04-06T11:33:34+00:00",
      "publisher": "User ID: 'MCDONALDD' User name: 'Denzle McDonald' User skill set: 'T3'",
      "lastReviewDate": "2021-04-06",
      "subjectType": [ "Patient" ],
      "item": [ {
        "linkId": "59132",
        "prefix": "16100",
        "text": "PregnancyOver20Weeks",
        "type": "choice",
        "required": true,
        "repeats": false,
        "option": [ {
          "valueString": "==\"present\", Selected: false"
        }, {
          "valueString": "*, Selected: true"
        } ]
      } ]
    }
  }, {
    "fullUrl": "urn:uuid:5600d718-00b5-4f20-8bab-ed318e54ebb1",
    "resource": {
      "resourceType": "QuestionnaireResponse",
      "id": "5600d718-00b5-4f20-8bab-ed318e54ebb1",
      "identifier": {
        "value": "59132"
      },
      "questionnaire": {
        "reference": "urn:uuid:9720dcb9-d3fc-44de-8441-79ec0058d5f7"
      },
      "status": "completed",
      "subject": {
        "reference": "urn:uuid:2ee69256-43c3-4a40-af41-4e5e53be5043"
      },
      "context": {
        "reference": "urn:uuid:4073fef6-ee62-4a07-96d0-390a19cd4544"
      },
      "authored": "2021-04-06T11:33:34+00:00",
      "item": [ {
        "linkId": "Tx225151",
        "text": "RectalBleedingwithAbdominalPainPW",
        "answer": [ {
          "valueString": "*"
        } ]
      } ]
    }
  }, {
    "fullUrl": "urn:uuid:9720dcb9-d3fc-44de-8441-79ec0058d5f7",
    "resource": {
      "resourceType": "Questionnaire",
      "id": "9720dcb9-d3fc-44de-8441-79ec0058d5f7",
      "identifier": [ {
        "value": "59132"
      } ],
      "version": "2021-04-06T11:33:34.963Z",
      "status": "active",
      "experimental": false,
      "date": "2021-04-06T11:33:34+00:00",
      "publisher": "User ID: 'MCDONALDD' User name: 'Denzle McDonald' User skill set: 'T3'",
      "lastReviewDate": "2021-04-06",
      "subjectType": [ "Patient" ],
      "item": [ {
        "linkId": "59132",
        "prefix": "26200",
        "text": "RectalBleedingwithAbdominalPainPW",
        "type": "choice",
        "required": true,
        "repeats": false,
        "option": [ {
          "valueString": "==\"present\", Selected: false"
        }, {
          "valueString": "*, Selected: true"
        } ]
      } ]
    }
  }, {
    "fullUrl": "urn:uuid:e43d5fd3-5b87-453c-9a8a-b6e3ef2cf965",
    "resource": {
      "resourceType": "QuestionnaireResponse",
      "id": "e43d5fd3-5b87-453c-9a8a-b6e3ef2cf965",
      "identifier": {
        "value": "59132"
      },
      "questionnaire": {
        "reference": "urn:uuid:ed56800b-a9be-4157-bf89-c4cc921260e7"
      },
      "status": "completed",
      "subject": {
        "reference": "urn:uuid:2ee69256-43c3-4a40-af41-4e5e53be5043"
      },
      "context": {
        "reference": "urn:uuid:4073fef6-ee62-4a07-96d0-390a19cd4544"
      },
      "authored": "2021-04-06T11:33:34+00:00",
      "item": [ {
        "linkId": "Tx221119",
        "text": "SeverelyIll",
        "answer": [ {
          "valueString": "*"
        } ]
      } ]
    }
  }, {
    "fullUrl": "urn:uuid:ed56800b-a9be-4157-bf89-c4cc921260e7",
    "resource": {
      "resourceType": "Questionnaire",
      "id": "ed56800b-a9be-4157-bf89-c4cc921260e7",
      "identifier": [ {
        "value": "59132"
      } ],
      "version": "2021-04-06T11:33:34.963Z",
      "status": "active",
      "experimental": false,
      "date": "2021-04-06T11:33:34+00:00",
      "publisher": "User ID: 'MCDONALDD' User name: 'Denzle McDonald' User skill set: 'T3'",
      "lastReviewDate": "2021-04-06",
      "subjectType": [ "Patient" ],
      "item": [ {
        "linkId": "59132",
        "prefix": "7500",
        "text": "SeverelyIll",
        "type": "choice",
        "required": true,
        "repeats": false,
        "option": [ {
          "valueString": "==\"present\", Selected: false"
        }, {
          "valueString": "*, Selected: true"
        } ]
      } ]
    }
  }, {
    "fullUrl": "urn:uuid:becc5a73-8655-40da-83de-24485e2fc639",
    "resource": {
      "resourceType": "QuestionnaireResponse",
      "id": "becc5a73-8655-40da-83de-24485e2fc639",
      "identifier": {
        "value": "59132"
      },
      "questionnaire": {
        "reference": "urn:uuid:53a01a28-ad76-4da2-814b-0daa4239199e"
      },
      "status": "completed",
      "subject": {
        "reference": "urn:uuid:2ee69256-43c3-4a40-af41-4e5e53be5043"
      },
      "context": {
        "reference": "urn:uuid:4073fef6-ee62-4a07-96d0-390a19cd4544"
      },
      "authored": "2021-04-06T11:33:34+00:00",
      "item": [ {
        "linkId": "Tx224934",
        "text": "GroinPainOrSwellingPWAbdominalPainPW",
        "answer": [ {
          "valueString": "*"
        } ]
      } ]
    }
  }, {
    "fullUrl": "urn:uuid:53a01a28-ad76-4da2-814b-0daa4239199e",
    "resource": {
      "resourceType": "Questionnaire",
      "id": "53a01a28-ad76-4da2-814b-0daa4239199e",
      "identifier": [ {
        "value": "59132"
      } ],
      "version": "2021-04-06T11:33:34.963Z",
      "status": "active",
      "experimental": false,
      "date": "2021-04-06T11:33:34+00:00",
      "publisher": "User ID: 'MCDONALDD' User name: 'Denzle McDonald' User skill set: 'T3'",
      "lastReviewDate": "2021-04-06",
      "subjectType": [ "Patient" ],
      "item": [ {
        "linkId": "59132",
        "prefix": "23300",
        "text": "GroinPainOrSwellingPWAbdominalPainPW",
        "type": "choice",
        "required": true,
        "repeats": false,
        "option": [ {
          "valueString": "==\"present\", Selected: false"
        }, {
          "valueString": "*, Selected: true"
        } ]
      } ]
    }
  }, {
    "fullUrl": "urn:uuid:ab914ef4-c49c-46fa-b539-ee2f4e363283",
    "resource": {
      "resourceType": "QuestionnaireResponse",
      "id": "ab914ef4-c49c-46fa-b539-ee2f4e363283",
      "identifier": {
        "value": "59132"
      },
      "questionnaire": {
        "reference": "urn:uuid:3843f393-b7ef-4f87-9739-8b617337a2f6"
      },
      "status": "completed",
      "subject": {
        "reference": "urn:uuid:2ee69256-43c3-4a40-af41-4e5e53be5043"
      },
      "context": {
        "reference": "urn:uuid:4073fef6-ee62-4a07-96d0-390a19cd4544"
      },
      "authored": "2021-04-06T11:33:34+00:00",
      "item": [ {
        "linkId": "Tx224906",
        "text": "AbdominalPainPW",
        "answer": [ {
          "valueString": "*"
        } ]
      } ]
    }
  }, {
    "fullUrl": "urn:uuid:3843f393-b7ef-4f87-9739-8b617337a2f6",
    "resource": {
      "resourceType": "Questionnaire",
      "id": "3843f393-b7ef-4f87-9739-8b617337a2f6",
      "identifier": [ {
        "value": "59132"
      } ],
      "version": "2021-04-06T11:33:34.963Z",
      "status": "active",
      "experimental": false,
      "date": "2021-04-06T11:33:34+00:00",
      "publisher": "User ID: 'MCDONALDD' User name: 'Denzle McDonald' User skill set: 'T3'",
      "lastReviewDate": "2021-04-06",
      "subjectType": [ "Patient" ],
      "item": [ {
        "linkId": "59132",
        "prefix": "23400",
        "text": "AbdominalPainPW",
        "type": "choice",
        "required": true,
        "repeats": false,
        "option": [ {
          "valueString": "==\"present\", Selected: false"
        }, {
          "valueString": "*, Selected: true"
        } ]
      } ]
    }
  }, {
    "fullUrl": "urn:uuid:2d93303c-d529-46dd-b1bc-53b7513a222f",
    "resource": {
      "resourceType": "QuestionnaireResponse",
      "id": "2d93303c-d529-46dd-b1bc-53b7513a222f",
      "identifier": {
        "value": "59132"
      },
      "questionnaire": {
        "reference": "urn:uuid:f0946e7a-b83c-4c04-b58a-9993257f8073"
      },
      "status": "completed",
      "subject": {
        "reference": "urn:uuid:2ee69256-43c3-4a40-af41-4e5e53be5043"
      },
      "context": {
        "reference": "urn:uuid:4073fef6-ee62-4a07-96d0-390a19cd4544"
      },
      "authored": "2021-04-06T11:33:34+00:00",
      "item": [ {
        "linkId": "Tx224928",
        "text": "VomitingAnd/OrNauseaWithAbdominalPainPW",
        "answer": [ {
          "valueString": "==\"present\""
        } ]
      } ]
    }
  }, {
    "fullUrl": "urn:uuid:f0946e7a-b83c-4c04-b58a-9993257f8073",
    "resource": {
      "resourceType": "Questionnaire",
      "id": "f0946e7a-b83c-4c04-b58a-9993257f8073",
      "identifier": [ {
        "value": "59132"
      } ],
      "version": "2021-04-06T11:33:34.963Z",
      "status": "active",
      "experimental": false,
      "date": "2021-04-06T11:33:34+00:00",
      "publisher": "User ID: 'MCDONALDD' User name: 'Denzle McDonald' User skill set: 'T3'",
      "lastReviewDate": "2021-04-06",
      "subjectType": [ "Patient" ],
      "item": [ {
        "linkId": "59132",
        "prefix": "23500",
        "text": "VomitingAnd/OrNauseaWithAbdominalPainPW",
        "type": "choice",
        "required": true,
        "repeats": false,
        "option": [ {
          "valueString": "==\"present\", Selected: true"
        }, {
          "valueString": "*, Selected: false"
        } ]
      } ]
    }
  }, {
    "fullUrl": "urn:uuid:c5aa4406-2011-4809-aab3-5ebd26acd88b",
    "resource": {
      "resourceType": "QuestionnaireResponse",
      "id": "c5aa4406-2011-4809-aab3-5ebd26acd88b",
      "identifier": {
        "value": "59132"
      },
      "questionnaire": {
        "reference": "urn:uuid:061a22a6-ffe9-4bc6-a5b6-c6e133acf53a"
      },
      "status": "completed",
      "subject": {
        "reference": "urn:uuid:2ee69256-43c3-4a40-af41-4e5e53be5043"
      },
      "context": {
        "reference": "urn:uuid:4073fef6-ee62-4a07-96d0-390a19cd4544"
      },
      "authored": "2021-04-06T11:33:34+00:00",
      "item": [ {
        "linkId": "Tx221017",
        "text": "PATIENT_GENDER",
        "answer": [ {
          "valueString": "==\"F\""
        } ]
      } ]
    }
  }, {
    "fullUrl": "urn:uuid:061a22a6-ffe9-4bc6-a5b6-c6e133acf53a",
    "resource": {
      "resourceType": "Questionnaire",
      "id": "061a22a6-ffe9-4bc6-a5b6-c6e133acf53a",
      "identifier": [ {
        "value": "59132"
      } ],
      "version": "2021-04-06T11:33:34.963Z",
      "status": "active",
      "experimental": false,
      "date": "2021-04-06T11:33:34+00:00",
      "publisher": "User ID: 'MCDONALDD' User name: 'Denzle McDonald' User skill set: 'T3'",
      "lastReviewDate": "2021-04-06",
      "subjectType": [ "Patient" ],
      "item": [ {
        "linkId": "59132",
        "prefix": "9000",
        "text": "PATIENT_GENDER",
        "type": "choice",
        "required": true,
        "repeats": false,
        "option": [ {
          "valueString": "==\"M\", Selected: false"
        }, {
          "valueString": "==\"F\", Selected: true"
        }, {
          "valueString": "==\"U\", Selected: false"
        }, {
          "valueString": "*, Selected: false"
        } ]
      } ]
    }
  }, {
    "fullUrl": "urn:uuid:c80cd05b-6f52-408d-8141-da4f217ccded",
    "resource": {
      "resourceType": "QuestionnaireResponse",
      "id": "c80cd05b-6f52-408d-8141-da4f217ccded",
      "identifier": {
        "value": "59132"
      },
      "questionnaire": {
        "reference": "urn:uuid:9df14e43-d9c6-43c7-b991-1101729249d6"
      },
      "status": "completed",
      "subject": {
        "reference": "urn:uuid:2ee69256-43c3-4a40-af41-4e5e53be5043"
      },
      "context": {
        "reference": "urn:uuid:4073fef6-ee62-4a07-96d0-390a19cd4544"
      },
      "authored": "2021-04-06T11:33:34+00:00"
    }
  }, {
    "fullUrl": "urn:uuid:9df14e43-d9c6-43c7-b991-1101729249d6",
    "resource": {
      "resourceType": "Questionnaire",
      "id": "9df14e43-d9c6-43c7-b991-1101729249d6",
      "identifier": [ {
        "value": "59132"
      } ],
      "version": "2021-04-06T11:33:34.963Z",
      "status": "active",
      "experimental": false,
      "date": "2021-04-06T11:33:34+00:00",
      "publisher": "User ID: 'MCDONALDD' User name: 'Denzle McDonald' User skill set: 'T3'",
      "lastReviewDate": "2021-04-06",
      "subjectType": [ "Patient" ]
    }
  }, {
    "fullUrl": "urn:uuid:0deae281-489c-4187-9536-89b3c6c7032c",
    "resource": {
      "resourceType": "QuestionnaireResponse",
      "id": "0deae281-489c-4187-9536-89b3c6c7032c",
      "identifier": {
        "value": "59132"
      },
      "questionnaire": {
        "reference": "urn:uuid:0a45b20e-6667-4880-8139-d03d4715ea21"
      },
      "status": "completed",
      "subject": {
        "reference": "urn:uuid:2ee69256-43c3-4a40-af41-4e5e53be5043"
      },
      "context": {
        "reference": "urn:uuid:4073fef6-ee62-4a07-96d0-390a19cd4544"
      },
      "authored": "2021-04-06T11:33:34+00:00",
      "item": [ {
        "linkId": "Tx221114",
        "text": "Pregnancy",
        "answer": [ {
          "valueString": "*"
        } ]
      } ]
    }
  }, {
    "fullUrl": "urn:uuid:0a45b20e-6667-4880-8139-d03d4715ea21",
    "resource": {
      "resourceType": "Questionnaire",
      "id": "0a45b20e-6667-4880-8139-d03d4715ea21",
      "identifier": [ {
        "value": "59132"
      } ],
      "version": "2021-04-06T11:33:34.963Z",
      "status": "active",
      "experimental": false,
      "date": "2021-04-06T11:33:34+00:00",
      "publisher": "User ID: 'MCDONALDD' User name: 'Denzle McDonald' User skill set: 'T3'",
      "lastReviewDate": "2021-04-06",
      "subjectType": [ "Patient" ],
      "item": [ {
        "linkId": "59132",
        "prefix": "64500",
        "text": "Pregnancy",
        "type": "choice",
        "required": true,
        "repeats": false,
        "option": [ {
          "valueString": "==\"present\", Selected: false"
        }, {
          "valueString": "*, Selected: true"
        } ]
      } ]
    }
  }, {
    "fullUrl": "urn:uuid:3a6334f6-5620-483d-b1fa-44282422fea8",
    "resource": {
      "resourceType": "QuestionnaireResponse",
      "id": "3a6334f6-5620-483d-b1fa-44282422fea8",
      "identifier": {
        "value": "59132"
      },
      "questionnaire": {
        "reference": "urn:uuid:b0533a29-27f9-4208-adc0-192f8a779130"
      },
      "status": "completed",
      "subject": {
        "reference": "urn:uuid:2ee69256-43c3-4a40-af41-4e5e53be5043"
      },
      "context": {
        "reference": "urn:uuid:4073fef6-ee62-4a07-96d0-390a19cd4544"
      },
      "authored": "2021-04-06T11:33:34+00:00",
      "item": [ {
        "linkId": "Tx221338",
        "text": ">=11yearsConfirmed",
        "answer": [ {
          "valueString": "*"
        } ]
      } ]
    }
  }, {
    "fullUrl": "urn:uuid:b0533a29-27f9-4208-adc0-192f8a779130",
    "resource": {
      "resourceType": "Questionnaire",
      "id": "b0533a29-27f9-4208-adc0-192f8a779130",
      "identifier": [ {
        "value": "59132"
      } ],
      "version": "2021-04-06T11:33:34.963Z",
      "status": "active",
      "experimental": false,
      "date": "2021-04-06T11:33:34+00:00",
      "publisher": "User ID: 'MCDONALDD' User name: 'Denzle McDonald' User skill set: 'T3'",
      "lastReviewDate": "2021-04-06",
      "subjectType": [ "Patient" ],
      "item": [ {
        "linkId": "59132",
        "prefix": "65600",
        "text": ">=11yearsConfirmed",
        "type": "choice",
        "required": true,
        "repeats": false,
        "option": [ {
          "valueString": "==\"present\", Selected: false"
        }, {
          "valueString": "*, Selected: true"
        } ]
      } ]
    }
  }, {
    "fullUrl": "urn:uuid:7627d42b-20e7-4b75-9ad1-8c5ddc6c9b1c",
    "resource": {
      "resourceType": "QuestionnaireResponse",
      "id": "7627d42b-20e7-4b75-9ad1-8c5ddc6c9b1c",
      "identifier": {
        "value": "59132"
      },
      "questionnaire": {
        "reference": "urn:uuid:ba35f989-79a5-40e0-9b20-3582f97d2ba1"
      },
      "status": "completed",
      "subject": {
        "reference": "urn:uuid:2ee69256-43c3-4a40-af41-4e5e53be5043"
      },
      "context": {
        "reference": "urn:uuid:4073fef6-ee62-4a07-96d0-390a19cd4544"
      },
      "authored": "2021-04-06T11:33:34+00:00",
      "item": [ {
        "linkId": "Tx221119",
        "text": "SeverelyIll",
        "answer": [ {
          "valueString": "*"
        } ]
      } ]
    }
  }, {
    "fullUrl": "urn:uuid:ba35f989-79a5-40e0-9b20-3582f97d2ba1",
    "resource": {
      "resourceType": "Questionnaire",
      "id": "ba35f989-79a5-40e0-9b20-3582f97d2ba1",
      "identifier": [ {
        "value": "59132"
      } ],
      "version": "2021-04-06T11:33:34.963Z",
      "status": "active",
      "experimental": false,
      "date": "2021-04-06T11:33:34+00:00",
      "publisher": "User ID: 'MCDONALDD' User name: 'Denzle McDonald' User skill set: 'T3'",
      "lastReviewDate": "2021-04-06",
      "subjectType": [ "Patient" ],
      "item": [ {
        "linkId": "59132",
        "prefix": "46200",
        "text": "SeverelyIll",
        "type": "choice",
        "required": true,
        "repeats": false,
        "option": [ {
          "valueString": "==\"present\", Selected: false"
        }, {
          "valueString": "*, Selected: true"
        } ]
      } ]
    }
  }, {
    "fullUrl": "urn:uuid:075a2ee7-b139-4748-ac27-a6cbb34ce94c",
    "resource": {
      "resourceType": "QuestionnaireResponse",
      "id": "075a2ee7-b139-4748-ac27-a6cbb34ce94c",
      "identifier": {
        "value": "59132"
      },
      "questionnaire": {
        "reference": "urn:uuid:ddd8a2f5-c854-40b2-b155-a0e44225ef25"
      },
      "status": "completed",
      "subject": {
        "reference": "urn:uuid:2ee69256-43c3-4a40-af41-4e5e53be5043"
      },
      "context": {
        "reference": "urn:uuid:4073fef6-ee62-4a07-96d0-390a19cd4544"
      },
      "authored": "2021-04-06T11:33:34+00:00",
      "item": [ {
        "linkId": "Tx220947",
        "text": "SeverePain",
        "answer": [ {
          "valueString": "*"
        } ]
      } ]
    }
  }, {
    "fullUrl": "urn:uuid:ddd8a2f5-c854-40b2-b155-a0e44225ef25",
    "resource": {
      "resourceType": "Questionnaire",
      "id": "ddd8a2f5-c854-40b2-b155-a0e44225ef25",
      "identifier": [ {
        "value": "59132"
      } ],
      "version": "2021-04-06T11:33:34.963Z",
      "status": "active",
      "experimental": false,
      "date": "2021-04-06T11:33:34+00:00",
      "publisher": "User ID: 'MCDONALDD' User name: 'Denzle McDonald' User skill set: 'T3'",
      "lastReviewDate": "2021-04-06",
      "subjectType": [ "Patient" ],
      "item": [ {
        "linkId": "59132",
        "prefix": "64600",
        "text": "SeverePain",
        "type": "choice",
        "required": true,
        "repeats": false,
        "option": [ {
          "valueString": "==\"present\", Selected: false"
        }, {
          "valueString": "*, Selected: true"
        } ]
      } ]
    }
  }, {
    "fullUrl": "urn:uuid:cf79fb4d-a74e-438c-8983-14ee9137badd",
    "resource": {
      "resourceType": "QuestionnaireResponse",
      "id": "cf79fb4d-a74e-438c-8983-14ee9137badd",
      "identifier": {
        "value": "59132"
      },
      "questionnaire": {
        "reference": "urn:uuid:b65d1787-5c16-4a93-824a-b242bfe6295e"
      },
      "status": "completed",
      "subject": {
        "reference": "urn:uuid:2ee69256-43c3-4a40-af41-4e5e53be5043"
      },
      "context": {
        "reference": "urn:uuid:4073fef6-ee62-4a07-96d0-390a19cd4544"
      },
      "authored": "2021-04-06T11:33:34+00:00",
      "item": [ {
        "linkId": "Tx220114",
        "text": "Have you taken anything that might be harmful or poisonous?",
        "answer": [ {
          "valueString": "no"
        } ]
      } ]
    }
  }, {
    "fullUrl": "urn:uuid:b65d1787-5c16-4a93-824a-b242bfe6295e",
    "resource": {
      "resourceType": "Questionnaire",
      "id": "b65d1787-5c16-4a93-824a-b242bfe6295e",
      "identifier": [ {
        "value": "59132"
      } ],
      "version": "2021-04-06T11:33:34.963Z",
      "status": "active",
      "experimental": false,
      "date": "2021-04-06T11:33:34+00:00",
      "publisher": "User ID: 'MCDONALDD' User name: 'Denzle McDonald' User skill set: 'T3'",
      "lastReviewDate": "2021-04-06",
      "subjectType": [ "Patient" ],
      "item": [ {
        "linkId": "59132",
        "prefix": "30300",
        "text": "Have you taken anything that might be harmful or poisonous?",
        "type": "choice",
        "required": true,
        "repeats": false,
        "option": [ {
          "valueString": "yes (specify substance if known), Selected: false"
        }, {
          "valueString": "not sure, Selected: false"
        }, {
          "valueString": "no, Selected: true"
        } ]
      } ]
    }
  }, {
    "fullUrl": "urn:uuid:e25320e5-c6b0-4fc7-bd47-d29c1701c048",
    "resource": {
      "resourceType": "QuestionnaireResponse",
      "id": "e25320e5-c6b0-4fc7-bd47-d29c1701c048",
      "identifier": {
        "value": "59132"
      },
      "questionnaire": {
        "reference": "urn:uuid:9338b9fd-f5ff-4ced-ab65-2ec91e9e955b"
      },
      "status": "completed",
      "subject": {
        "reference": "urn:uuid:2ee69256-43c3-4a40-af41-4e5e53be5043"
      },
      "context": {
        "reference": "urn:uuid:4073fef6-ee62-4a07-96d0-390a19cd4544"
      },
      "authored": "2021-04-06T11:33:34+00:00",
      "item": [ {
        "linkId": "Tx221176",
        "text": "PregnancyUnder20Weeks",
        "answer": [ {
          "valueString": "*"
        } ]
      } ]
    }
  }, {
    "fullUrl": "urn:uuid:9338b9fd-f5ff-4ced-ab65-2ec91e9e955b",
    "resource": {
      "resourceType": "Questionnaire",
      "id": "9338b9fd-f5ff-4ced-ab65-2ec91e9e955b",
      "identifier": [ {
        "value": "59132"
      } ],
      "version": "2021-04-06T11:33:34.963Z",
      "status": "active",
      "experimental": false,
      "date": "2021-04-06T11:33:34+00:00",
      "publisher": "User ID: 'MCDONALDD' User name: 'Denzle McDonald' User skill set: 'T3'",
      "lastReviewDate": "2021-04-06",
      "subjectType": [ "Patient" ],
      "item": [ {
        "linkId": "59132",
        "prefix": "7700",
        "text": "PregnancyUnder20Weeks",
        "type": "choice",
        "required": true,
        "repeats": false,
        "option": [ {
          "valueString": "==\"present\", Selected: false"
        }, {
          "valueString": "*, Selected: true"
        } ]
      } ]
    }
  }, {
    "fullUrl": "urn:uuid:2cbbb0d6-0358-487c-aa78-3c6ceae8f10a",
    "resource": {
      "resourceType": "QuestionnaireResponse",
      "id": "2cbbb0d6-0358-487c-aa78-3c6ceae8f10a",
      "identifier": {
        "value": "59132"
      },
      "questionnaire": {
        "reference": "urn:uuid:4241bb80-f093-49a8-94d1-2eaa291d5d95"
      },
      "status": "completed",
      "subject": {
        "reference": "urn:uuid:2ee69256-43c3-4a40-af41-4e5e53be5043"
      },
      "context": {
        "reference": "urn:uuid:4073fef6-ee62-4a07-96d0-390a19cd4544"
      },
      "authored": "2021-04-06T11:33:34+00:00",
      "item": [ {
        "linkId": "Tx221338",
        "text": ">=11yearsConfirmed",
        "answer": [ {
          "valueString": "*"
        } ]
      } ]
    }
  }, {
    "fullUrl": "urn:uuid:4241bb80-f093-49a8-94d1-2eaa291d5d95",
    "resource": {
      "resourceType": "Questionnaire",
      "id": "4241bb80-f093-49a8-94d1-2eaa291d5d95",
      "identifier": [ {
        "value": "59132"
      } ],
      "version": "2021-04-06T11:33:34.963Z",
      "status": "active",
      "experimental": false,
      "date": "2021-04-06T11:33:34+00:00",
      "publisher": "User ID: 'MCDONALDD' User name: 'Denzle McDonald' User skill set: 'T3'",
      "lastReviewDate": "2021-04-06",
      "subjectType": [ "Patient" ],
      "item": [ {
        "linkId": "59132",
        "prefix": "8200",
        "text": ">=11yearsConfirmed",
        "type": "choice",
        "required": true,
        "repeats": false,
        "option": [ {
          "valueString": "==\"present\", Selected: false"
        }, {
          "valueString": "*, Selected: true"
        } ]
      } ]
    }
  }, {
    "fullUrl": "urn:uuid:cf87da14-0b84-4044-af18-fa20d45c7515",
    "resource": {
      "resourceType": "QuestionnaireResponse",
      "id": "cf87da14-0b84-4044-af18-fa20d45c7515",
      "identifier": {
        "value": "59132"
      },
      "questionnaire": {
        "reference": "urn:uuid:6ae6ad3e-6b1d-4d7e-8617-05c0746af22b"
      },
      "status": "completed",
      "subject": {
        "reference": "urn:uuid:2ee69256-43c3-4a40-af41-4e5e53be5043"
      },
      "context": {
        "reference": "urn:uuid:4073fef6-ee62-4a07-96d0-390a19cd4544"
      },
      "authored": "2021-04-06T11:33:34+00:00",
      "item": [ {
        "linkId": "Tx1033",
        "text": "Have you passed a bowel motion that looks like either of the following?",
        "answer": [ {
          "valueString": "no"
        } ]
      } ]
    }
  }, {
    "fullUrl": "urn:uuid:6ae6ad3e-6b1d-4d7e-8617-05c0746af22b",
    "resource": {
      "resourceType": "Questionnaire",
      "id": "6ae6ad3e-6b1d-4d7e-8617-05c0746af22b",
      "identifier": [ {
        "value": "59132"
      } ],
      "version": "2021-04-06T11:33:34.963Z",
      "status": "active",
      "experimental": false,
      "date": "2021-04-06T11:33:34+00:00",
      "publisher": "User ID: 'MCDONALDD' User name: 'Denzle McDonald' User skill set: 'T3'",
      "lastReviewDate": "2021-04-06",
      "subjectType": [ "Patient" ],
      "item": [ {
        "linkId": "59132",
        "prefix": "65200",
        "text": "Have you passed a bowel motion that looks like either of the following?",
        "type": "choice",
        "required": true,
        "repeats": false,
        "option": [ {
          "valueString": "black and tarry, Selected: false"
        }, {
          "valueString": "red or maroon, Selected: false"
        }, {
          "valueString": "not sure, Selected: false"
        }, {
          "valueString": "no, Selected: true"
        } ]
      } ]
    }
  }, {
    "fullUrl": "urn:uuid:5c217342-17f8-4b76-b0fb-52264f9b7deb",
    "resource": {
      "resourceType": "QuestionnaireResponse",
      "id": "5c217342-17f8-4b76-b0fb-52264f9b7deb",
      "identifier": {
        "value": "59132"
      },
      "questionnaire": {
        "reference": "urn:uuid:961ec482-1fbe-46ad-b4bc-48c5b33ec2bd"
      },
      "status": "completed",
      "subject": {
        "reference": "urn:uuid:2ee69256-43c3-4a40-af41-4e5e53be5043"
      },
      "context": {
        "reference": "urn:uuid:4073fef6-ee62-4a07-96d0-390a19cd4544"
      },
      "authored": "2021-04-06T11:33:34+00:00",
      "item": [ {
        "linkId": "Tx223274",
        "text": "VHFSymptom",
        "answer": [ {
          "valueString": "*"
        } ]
      } ]
    }
  }, {
    "fullUrl": "urn:uuid:961ec482-1fbe-46ad-b4bc-48c5b33ec2bd",
    "resource": {
      "resourceType": "Questionnaire",
      "id": "961ec482-1fbe-46ad-b4bc-48c5b33ec2bd",
      "identifier": [ {
        "value": "59132"
      } ],
      "version": "2021-04-06T11:33:34.963Z",
      "status": "active",
      "experimental": false,
      "date": "2021-04-06T11:33:34+00:00",
      "publisher": "User ID: 'MCDONALDD' User name: 'Denzle McDonald' User skill set: 'T3'",
      "lastReviewDate": "2021-04-06",
      "subjectType": [ "Patient" ],
      "item": [ {
        "linkId": "59132",
        "prefix": "34000",
        "text": "VHFSymptom",
        "type": "choice",
        "required": true,
        "repeats": false,
        "option": [ {
          "valueString": "==\"present\", Selected: false"
        }, {
          "valueString": "*, Selected: true"
        } ]
      } ]
    }
  }, {
    "fullUrl": "urn:uuid:22de08d3-7e44-48ca-9424-518153aac26e",
    "resource": {
      "resourceType": "QuestionnaireResponse",
      "id": "22de08d3-7e44-48ca-9424-518153aac26e",
      "identifier": {
        "value": "59132"
      },
      "questionnaire": {
        "reference": "urn:uuid:f61f9b1e-6a91-4695-b09c-9b370b38aba4"
      },
      "status": "completed",
      "subject": {
        "reference": "urn:uuid:2ee69256-43c3-4a40-af41-4e5e53be5043"
      },
      "context": {
        "reference": "urn:uuid:4073fef6-ee62-4a07-96d0-390a19cd4544"
      },
      "authored": "2021-04-06T11:33:34+00:00",
      "item": [ {
        "linkId": "Tx224075",
        "text": "SeverelyIllandConfused",
        "answer": [ {
          "valueString": "*"
        } ]
      } ]
    }
  }, {
    "fullUrl": "urn:uuid:f61f9b1e-6a91-4695-b09c-9b370b38aba4",
    "resource": {
      "resourceType": "Questionnaire",
      "id": "f61f9b1e-6a91-4695-b09c-9b370b38aba4",
      "identifier": [ {
        "value": "59132"
      } ],
      "version": "2021-04-06T11:33:34.963Z",
      "status": "active",
      "experimental": false,
      "date": "2021-04-06T11:33:34+00:00",
      "publisher": "User ID: 'MCDONALDD' User name: 'Denzle McDonald' User skill set: 'T3'",
      "lastReviewDate": "2021-04-06",
      "subjectType": [ "Patient" ],
      "item": [ {
        "linkId": "59132",
        "prefix": "47300",
        "text": "SeverelyIllandConfused",
        "type": "choice",
        "required": true,
        "repeats": false,
        "option": [ {
          "valueString": "==\"present\", Selected: false"
        }, {
          "valueString": "*, Selected: true"
        } ]
      } ]
    }
  }, {
    "fullUrl": "urn:uuid:53e3209a-54de-471d-a190-9427ee97705a",
    "resource": {
      "resourceType": "QuestionnaireResponse",
      "id": "53e3209a-54de-471d-a190-9427ee97705a",
      "identifier": {
        "value": "59132"
      },
      "questionnaire": {
        "reference": "urn:uuid:19a81afa-1363-46f8-8bb4-56b7e455070a"
      },
      "status": "completed",
      "subject": {
        "reference": "urn:uuid:2ee69256-43c3-4a40-af41-4e5e53be5043"
      },
      "context": {
        "reference": "urn:uuid:4073fef6-ee62-4a07-96d0-390a19cd4544"
      },
      "authored": "2021-04-06T11:33:34+00:00",
      "item": [ {
        "linkId": "Tx221119",
        "text": "SeverelyIll",
        "answer": [ {
          "valueString": "*"
        } ]
      } ]
    }
  }, {
    "fullUrl": "urn:uuid:19a81afa-1363-46f8-8bb4-56b7e455070a",
    "resource": {
      "resourceType": "Questionnaire",
      "id": "19a81afa-1363-46f8-8bb4-56b7e455070a",
      "identifier": [ {
        "value": "59132"
      } ],
      "version": "2021-04-06T11:33:34.963Z",
      "status": "active",
      "experimental": false,
      "date": "2021-04-06T11:33:34+00:00",
      "publisher": "User ID: 'MCDONALDD' User name: 'Denzle McDonald' User skill set: 'T3'",
      "lastReviewDate": "2021-04-06",
      "subjectType": [ "Patient" ],
      "item": [ {
        "linkId": "59132",
        "prefix": "55200",
        "text": "SeverelyIll",
        "type": "choice",
        "required": true,
        "repeats": false,
        "option": [ {
          "valueString": "==\"present\", Selected: false"
        }, {
          "valueString": "*, Selected: true"
        } ]
      } ]
    }
  }, {
    "fullUrl": "urn:uuid:30eeb737-21a2-4639-8864-29ef0573e88c",
    "resource": {
      "resourceType": "QuestionnaireResponse",
      "id": "30eeb737-21a2-4639-8864-29ef0573e88c",
      "identifier": {
        "value": "59132"
      },
      "questionnaire": {
        "reference": "urn:uuid:091fed78-86e7-4629-8fae-3a2ab5a0092d"
      },
      "status": "completed",
      "subject": {
        "reference": "urn:uuid:2ee69256-43c3-4a40-af41-4e5e53be5043"
      },
      "context": {
        "reference": "urn:uuid:4073fef6-ee62-4a07-96d0-390a19cd4544"
      },
      "authored": "2021-04-06T11:33:34+00:00",
      "item": [ {
        "linkId": "Tx223485",
        "text": "ConfusionDeclared",
        "answer": [ {
          "valueString": "*"
        } ]
      } ]
    }
  }, {
    "fullUrl": "urn:uuid:091fed78-86e7-4629-8fae-3a2ab5a0092d",
    "resource": {
      "resourceType": "Questionnaire",
      "id": "091fed78-86e7-4629-8fae-3a2ab5a0092d",
      "identifier": [ {
        "value": "59132"
      } ],
      "version": "2021-04-06T11:33:34.963Z",
      "status": "active",
      "experimental": false,
      "date": "2021-04-06T11:33:34+00:00",
      "publisher": "User ID: 'MCDONALDD' User name: 'Denzle McDonald' User skill set: 'T3'",
      "lastReviewDate": "2021-04-06",
      "subjectType": [ "Patient" ],
      "item": [ {
        "linkId": "59132",
        "prefix": "55600",
        "text": "ConfusionDeclared",
        "type": "choice",
        "required": true,
        "repeats": false,
        "option": [ {
          "valueString": "==\"present\", Selected: false"
        }, {
          "valueString": "*, Selected: true"
        } ]
      } ]
    }
  }, {
    "fullUrl": "urn:uuid:97b905bb-ad0d-496a-a0dd-1acd08221946",
    "resource": {
      "resourceType": "QuestionnaireResponse",
      "id": "97b905bb-ad0d-496a-a0dd-1acd08221946",
      "identifier": {
        "value": "59132"
      },
      "questionnaire": {
        "reference": "urn:uuid:1d6a6661-a295-456a-8c78-801737ba3871"
      },
      "status": "completed",
      "subject": {
        "reference": "urn:uuid:2ee69256-43c3-4a40-af41-4e5e53be5043"
      },
      "context": {
        "reference": "urn:uuid:4073fef6-ee62-4a07-96d0-390a19cd4544"
      },
      "authored": "2021-04-06T11:33:34+00:00",
      "item": [ {
        "linkId": "Tx1213",
        "text": "Have you suddenly become confused OR more confused than usual?",
        "answer": [ {
          "valueString": "no"
        } ]
      } ]
    }
  }, {
    "fullUrl": "urn:uuid:1d6a6661-a295-456a-8c78-801737ba3871",
    "resource": {
      "resourceType": "Questionnaire",
      "id": "1d6a6661-a295-456a-8c78-801737ba3871",
      "identifier": [ {
        "value": "59132"
      } ],
      "version": "2021-04-06T11:33:34.963Z",
      "status": "active",
      "experimental": false,
      "date": "2021-04-06T11:33:34+00:00",
      "publisher": "User ID: 'MCDONALDD' User name: 'Denzle McDonald' User skill set: 'T3'",
      "lastReviewDate": "2021-04-06",
      "subjectType": [ "Patient" ],
      "item": [ {
        "linkId": "59132",
        "prefix": "55500",
        "text": "Have you suddenly become confused OR more confused than usual?",
        "type": "choice",
        "required": true,
        "repeats": false,
        "option": [ {
          "valueString": "yes, Selected: false"
        }, {
          "valueString": "not sure, Selected: false"
        }, {
          "valueString": "no, Selected: true"
        } ]
      } ]
    }
  }, {
    "fullUrl": "urn:uuid:d160d83c-f288-4002-92e7-02905b8ac0cd",
    "resource": {
      "resourceType": "QuestionnaireResponse",
      "id": "d160d83c-f288-4002-92e7-02905b8ac0cd",
      "identifier": {
        "value": "59132"
      },
      "questionnaire": {
        "reference": "urn:uuid:901df320-db3c-4f29-8643-3d403e3f4d3d"
      },
      "status": "completed",
      "subject": {
        "reference": "urn:uuid:2ee69256-43c3-4a40-af41-4e5e53be5043"
      },
      "context": {
        "reference": "urn:uuid:4073fef6-ee62-4a07-96d0-390a19cd4544"
      },
      "authored": "2021-04-06T11:33:34+00:00",
      "item": [ {
        "linkId": "Tx220164",
        "text": "Are you breathing faster or harder when doing nothing at all?",
        "answer": [ {
          "valueString": "no"
        } ]
      } ]
    }
  }, {
    "fullUrl": "urn:uuid:901df320-db3c-4f29-8643-3d403e3f4d3d",
    "resource": {
      "resourceType": "Questionnaire",
      "id": "901df320-db3c-4f29-8643-3d403e3f4d3d",
      "identifier": [ {
        "value": "59132"
      } ],
      "version": "2021-04-06T11:33:34.963Z",
      "status": "active",
      "experimental": false,
      "date": "2021-04-06T11:33:34+00:00",
      "publisher": "User ID: 'MCDONALDD' User name: 'Denzle McDonald' User skill set: 'T3'",
      "lastReviewDate": "2021-04-06",
      "subjectType": [ "Patient" ],
      "item": [ {
        "linkId": "59132",
        "prefix": "55400",
        "text": "Are you breathing faster or harder when doing nothing at all?",
        "type": "choice",
        "required": true,
        "repeats": false,
        "option": [ {
          "valueString": "yes, Selected: false"
        }, {
          "valueString": "not sure, Selected: false"
        }, {
          "valueString": "no, Selected: true"
        } ]
      } ]
    }
  }, {
    "fullUrl": "urn:uuid:94a0269d-387d-4da1-a9b5-2da167b8f9bb",
    "resource": {
      "resourceType": "QuestionnaireResponse",
      "id": "94a0269d-387d-4da1-a9b5-2da167b8f9bb",
      "identifier": {
        "value": "59132"
      },
      "questionnaire": {
        "reference": "urn:uuid:7ff84faf-cc79-4557-abcf-bab5f4c0f030"
      },
      "status": "completed",
      "subject": {
        "reference": "urn:uuid:2ee69256-43c3-4a40-af41-4e5e53be5043"
      },
      "context": {
        "reference": "urn:uuid:4073fef6-ee62-4a07-96d0-390a19cd4544"
      },
      "authored": "2021-04-06T11:33:34+00:00",
      "item": [ {
        "linkId": "Tx224697",
        "text": "ShoulderTipPainAsked",
        "answer": [ {
          "valueString": "*"
        } ]
      } ]
    }
  }, {
    "fullUrl": "urn:uuid:7ff84faf-cc79-4557-abcf-bab5f4c0f030",
    "resource": {
      "resourceType": "Questionnaire",
      "id": "7ff84faf-cc79-4557-abcf-bab5f4c0f030",
      "identifier": [ {
        "value": "59132"
      } ],
      "version": "2021-04-06T11:33:34.963Z",
      "status": "active",
      "experimental": false,
      "date": "2021-04-06T11:33:34+00:00",
      "publisher": "User ID: 'MCDONALDD' User name: 'Denzle McDonald' User skill set: 'T3'",
      "lastReviewDate": "2021-04-06",
      "subjectType": [ "Patient" ],
      "item": [ {
        "linkId": "59132",
        "prefix": "59300",
        "text": "ShoulderTipPainAsked",
        "type": "choice",
        "required": true,
        "repeats": false,
        "option": [ {
          "valueString": "==\"present\", Selected: false"
        }, {
          "valueString": "*, Selected: true"
        } ]
      } ]
    }
  }, {
    "fullUrl": "urn:uuid:6d863894-4d29-43bd-817b-e287d62ba400",
    "resource": {
      "resourceType": "QuestionnaireResponse",
      "id": "6d863894-4d29-43bd-817b-e287d62ba400",
      "identifier": {
        "value": "59132"
      },
      "questionnaire": {
        "reference": "urn:uuid:0d9de4cd-93a6-4331-b05b-4e2fe02d2218"
      },
      "status": "completed",
      "subject": {
        "reference": "urn:uuid:2ee69256-43c3-4a40-af41-4e5e53be5043"
      },
      "context": {
        "reference": "urn:uuid:4073fef6-ee62-4a07-96d0-390a19cd4544"
      },
      "authored": "2021-04-06T11:33:34+00:00",
      "item": [ {
        "linkId": "Tx1513",
        "text": "Have you got either of the following problems?",
        "answer": [ {
          "valueString": "no"
        } ]
      } ]
    }
  }, {
    "fullUrl": "urn:uuid:0d9de4cd-93a6-4331-b05b-4e2fe02d2218",
    "resource": {
      "resourceType": "Questionnaire",
      "id": "0d9de4cd-93a6-4331-b05b-4e2fe02d2218",
      "identifier": [ {
        "value": "59132"
      } ],
      "version": "2021-04-06T11:33:34.963Z",
      "status": "active",
      "experimental": false,
      "date": "2021-04-06T11:33:34+00:00",
      "publisher": "User ID: 'MCDONALDD' User name: 'Denzle McDonald' User skill set: 'T3'",
      "lastReviewDate": "2021-04-06",
      "subjectType": [ "Patient" ],
      "item": [ {
        "linkId": "59132",
        "prefix": "11000",
        "text": "Have you got either of the following problems?",
        "type": "choice",
        "required": true,
        "repeats": false,
        "option": [ {
          "valueString": "new pain in the TIP of a shoulder as well, Selected: false"
        }, {
          "valueString": "pain in the lower right side of the abdomen, Selected: false"
        }, {
          "valueString": "not sure, Selected: false"
        }, {
          "valueString": "no, Selected: true"
        } ]
      } ]
    }
  }, {
    "fullUrl": "urn:uuid:db2d83da-3a8e-4fef-8ac1-eea6387d2e99",
    "resource": {
      "resourceType": "QuestionnaireResponse",
      "id": "db2d83da-3a8e-4fef-8ac1-eea6387d2e99",
      "identifier": {
        "value": "59132"
      },
      "questionnaire": {
        "reference": "urn:uuid:51dddb67-5ddf-4fcd-8c37-624c75bec625"
      },
      "status": "completed",
      "subject": {
        "reference": "urn:uuid:2ee69256-43c3-4a40-af41-4e5e53be5043"
      },
      "context": {
        "reference": "urn:uuid:4073fef6-ee62-4a07-96d0-390a19cd4544"
      },
      "authored": "2021-04-06T11:33:34+00:00",
      "item": [ {
        "linkId": "Tx3481",
        "text": "Has the pain been there ALL THE TIME for MORE THAN 4 HOURS?",
        "answer": [ {
          "valueString": "no (LESS THAN 4 hours)"
        } ]
      } ]
    }
  }, {
    "fullUrl": "urn:uuid:51dddb67-5ddf-4fcd-8c37-624c75bec625",
    "resource": {
      "resourceType": "Questionnaire",
      "id": "51dddb67-5ddf-4fcd-8c37-624c75bec625",
      "identifier": [ {
        "value": "59132"
      } ],
      "version": "2021-04-06T11:33:34.963Z",
      "status": "active",
      "experimental": false,
      "date": "2021-04-06T11:33:34+00:00",
      "publisher": "User ID: 'MCDONALDD' User name: 'Denzle McDonald' User skill set: 'T3'",
      "lastReviewDate": "2021-04-06",
      "subjectType": [ "Patient" ],
      "item": [ {
        "linkId": "59132",
        "prefix": "13000",
        "text": "Has the pain been there ALL THE TIME for MORE THAN 4 HOURS?",
        "type": "choice",
        "required": true,
        "repeats": false,
        "option": [ {
          "valueString": "yes (4 hours or MORE), Selected: false"
        }, {
          "valueString": "not sure, Selected: false"
        }, {
          "valueString": "no (LESS THAN 4 hours), Selected: true"
        } ]
      } ]
    }
  }, {
    "fullUrl": "urn:uuid:510b59d8-7319-4ccb-b3d9-bba56dfe16c4",
    "resource": {
      "resourceType": "QuestionnaireResponse",
      "id": "510b59d8-7319-4ccb-b3d9-bba56dfe16c4",
      "identifier": {
        "value": "59132"
      },
      "questionnaire": {
        "reference": "urn:uuid:c9778310-06e4-4f13-90fd-d8ab19788458"
      },
      "status": "completed",
      "subject": {
        "reference": "urn:uuid:2ee69256-43c3-4a40-af41-4e5e53be5043"
      },
      "context": {
        "reference": "urn:uuid:4073fef6-ee62-4a07-96d0-390a19cd4544"
      },
      "authored": "2021-04-06T11:33:34+00:00",
      "item": [ {
        "linkId": "Tx1178",
        "text": "Have you been diagnosed with diabetes?",
        "answer": [ {
          "valueString": "no"
        } ]
      } ]
    }
  }, {
    "fullUrl": "urn:uuid:c9778310-06e4-4f13-90fd-d8ab19788458",
    "resource": {
      "resourceType": "Questionnaire",
      "id": "c9778310-06e4-4f13-90fd-d8ab19788458",
      "identifier": [ {
        "value": "59132"
      } ],
      "version": "2021-04-06T11:33:34.963Z",
      "status": "active",
      "experimental": false,
      "date": "2021-04-06T11:33:34+00:00",
      "publisher": "User ID: 'MCDONALDD' User name: 'Denzle McDonald' User skill set: 'T3'",
      "lastReviewDate": "2021-04-06",
      "subjectType": [ "Patient" ],
      "item": [ {
        "linkId": "59132",
        "prefix": "13700",
        "text": "Have you been diagnosed with diabetes?",
        "type": "choice",
        "required": true,
        "repeats": false,
        "option": [ {
          "valueString": "yes, Selected: false"
        }, {
          "valueString": "not sure, Selected: false"
        }, {
          "valueString": "no, Selected: true"
        } ]
      } ]
    }
  }, {
    "fullUrl": "urn:uuid:f4bc4281-f6c6-45fa-8b8b-2cb74b34b34f",
    "resource": {
      "resourceType": "QuestionnaireResponse",
      "id": "f4bc4281-f6c6-45fa-8b8b-2cb74b34b34f",
      "identifier": {
        "value": "59132"
      },
      "questionnaire": {
        "reference": "urn:uuid:06bd8cbc-8952-4dbf-99a4-39f4891405ec"
      },
      "status": "completed",
      "subject": {
        "reference": "urn:uuid:2ee69256-43c3-4a40-af41-4e5e53be5043"
      },
      "context": {
        "reference": "urn:uuid:4073fef6-ee62-4a07-96d0-390a19cd4544"
      },
      "authored": "2021-04-06T11:33:34+00:00",
      "item": [ {
        "linkId": "Tx220906",
        "text": "Have you got pain in the back or side between the ribs and hips?",
        "answer": [ {
          "valueString": "yes"
        } ]
      } ]
    }
  }, {
    "fullUrl": "urn:uuid:06bd8cbc-8952-4dbf-99a4-39f4891405ec",
    "resource": {
      "resourceType": "Questionnaire",
      "id": "06bd8cbc-8952-4dbf-99a4-39f4891405ec",
      "identifier": [ {
        "value": "59132"
      } ],
      "version": "2021-04-06T11:33:34.963Z",
      "status": "active",
      "experimental": false,
      "date": "2021-04-06T11:33:34+00:00",
      "publisher": "User ID: 'MCDONALDD' User name: 'Denzle McDonald' User skill set: 'T3'",
      "lastReviewDate": "2021-04-06",
      "subjectType": [ "Patient" ],
      "item": [ {
        "linkId": "59132",
        "prefix": "14400",
        "text": "Have you got pain in the back or side between the ribs and hips?",
        "type": "choice",
        "required": true,
        "repeats": false,
        "option": [ {
          "valueString": "yes, Selected: true"
        }, {
          "valueString": "not sure, Selected: false"
        }, {
          "valueString": "no, Selected: false"
        } ]
      } ]
    }
  }, {
    "fullUrl": "urn:uuid:46c26346-9664-4dfb-b720-f7f5c096d980",
    "resource": {
      "resourceType": "QuestionnaireResponse",
      "id": "46c26346-9664-4dfb-b720-f7f5c096d980",
      "identifier": {
        "value": "59132"
      },
      "questionnaire": {
        "reference": "urn:uuid:e87dd6fb-ec72-42ec-b0a3-a83b21d8d462"
      },
      "status": "completed",
      "subject": {
        "reference": "urn:uuid:2ee69256-43c3-4a40-af41-4e5e53be5043"
      },
      "context": {
        "reference": "urn:uuid:4073fef6-ee62-4a07-96d0-390a19cd4544"
      },
      "authored": "2021-04-06T11:33:34+00:00",
      "item": [ {
        "linkId": "Tx1122",
        "text": "Have you felt hot or feverish at any time in the last 12 hours?",
        "answer": [ {
          "valueString": "yes - temperature not taken"
        } ]
      } ]
    }
  }, {
    "fullUrl": "urn:uuid:e87dd6fb-ec72-42ec-b0a3-a83b21d8d462",
    "resource": {
      "resourceType": "Questionnaire",
      "id": "e87dd6fb-ec72-42ec-b0a3-a83b21d8d462",
      "identifier": [ {
        "value": "59132"
      } ],
      "version": "2021-04-06T11:33:34.963Z",
      "status": "active",
      "experimental": false,
      "date": "2021-04-06T11:33:34+00:00",
      "publisher": "User ID: 'MCDONALDD' User name: 'Denzle McDonald' User skill set: 'T3'",
      "lastReviewDate": "2021-04-06",
      "subjectType": [ "Patient" ],
      "item": [ {
        "linkId": "59132",
        "prefix": "14700",
        "text": "Have you felt hot or feverish at any time in the last 12 hours?",
        "type": "choice",
        "required": true,
        "repeats": false,
        "option": [ {
          "valueString": "yes - temperature not taken, Selected: true"
        }, {
          "valueString": "yes - temperature taken (specify), Selected: false"
        }, {
          "valueString": "not sure, Selected: false"
        }, {
          "valueString": "no, Selected: false"
        } ]
      } ]
    }
  }, {
    "fullUrl": "urn:uuid:c22e0cad-7362-4763-8dd9-a98fcd7539cd",
    "resource": {
      "resourceType": "QuestionnaireResponse",
      "id": "c22e0cad-7362-4763-8dd9-a98fcd7539cd",
      "identifier": {
        "value": "59132"
      },
      "questionnaire": {
        "reference": "urn:uuid:b9a74207-6378-4f8c-bccf-e1e6cbc87865"
      },
      "status": "completed",
      "subject": {
        "reference": "urn:uuid:2ee69256-43c3-4a40-af41-4e5e53be5043"
      },
      "context": {
        "reference": "urn:uuid:4073fef6-ee62-4a07-96d0-390a19cd4544"
      },
      "authored": "2021-04-06T11:33:34+00:00",
      "item": [ {
        "linkId": "Tx1320",
        "text": "Have you got a new red rash all over, like sunburn?",
        "answer": [ {
          "valueString": "no"
        } ]
      } ]
    }
  }, {
    "fullUrl": "urn:uuid:b9a74207-6378-4f8c-bccf-e1e6cbc87865",
    "resource": {
      "resourceType": "Questionnaire",
      "id": "b9a74207-6378-4f8c-bccf-e1e6cbc87865",
      "identifier": [ {
        "value": "59132"
      } ],
      "version": "2021-04-06T11:33:34.963Z",
      "status": "active",
      "experimental": false,
      "date": "2021-04-06T11:33:34+00:00",
      "publisher": "User ID: 'MCDONALDD' User name: 'Denzle McDonald' User skill set: 'T3'",
      "lastReviewDate": "2021-04-06",
      "subjectType": [ "Patient" ],
      "item": [ {
        "linkId": "59132",
        "prefix": "14800",
        "text": "Have you got a new red rash all over, like sunburn?",
        "type": "choice",
        "required": true,
        "repeats": false,
        "option": [ {
          "valueString": "yes, Selected: false"
        }, {
          "valueString": "not sure, Selected: false"
        }, {
          "valueString": "no, Selected: true"
        } ]
      } ]
    }
  }, {
    "fullUrl": "urn:uuid:9885cf49-80ef-475c-9a3c-6c407caafcf0",
    "resource": {
      "resourceType": "QuestionnaireResponse",
      "id": "9885cf49-80ef-475c-9a3c-6c407caafcf0",
      "identifier": {
        "value": "59132"
      },
      "questionnaire": {
        "reference": "urn:uuid:311748c5-26b4-415d-a158-68a5a78a1465"
      },
      "status": "completed",
      "subject": {
        "reference": "urn:uuid:2ee69256-43c3-4a40-af41-4e5e53be5043"
      },
      "context": {
        "reference": "urn:uuid:4073fef6-ee62-4a07-96d0-390a19cd4544"
      },
      "authored": "2021-04-06T11:33:34+00:00",
      "item": [ {
        "linkId": "Tx221449",
        "text": "STRING:SDPCFullPrimaryCareassessmentandprescribingcapability",
        "answer": [ {
          "valueString": "\"PC full Primary Care assessment and prescribing capability\""
        } ]
      } ]
    }
  }, {
    "fullUrl": "urn:uuid:311748c5-26b4-415d-a158-68a5a78a1465",
    "resource": {
      "resourceType": "Questionnaire",
      "id": "311748c5-26b4-415d-a158-68a5a78a1465",
      "identifier": [ {
        "value": "59132"
      } ],
      "version": "2021-04-06T11:33:34.963Z",
      "status": "active",
      "experimental": false,
      "date": "2021-04-06T11:33:34+00:00",
      "publisher": "User ID: 'MCDONALDD' User name: 'Denzle McDonald' User skill set: 'T3'",
      "lastReviewDate": "2021-04-06",
      "subjectType": [ "Patient" ],
      "item": [ {
        "linkId": "59132",
        "prefix": "14900",
        "text": "STRING:SDPCFullPrimaryCareassessmentandprescribingcapability",
        "type": "choice",
        "required": true,
        "repeats": false,
        "option": [ {
          "valueString": "\"PC full Primary Care assessment and prescribing capability\", Selected: true"
        } ]
      } ]
    }
  }, {
    "fullUrl": "urn:uuid:915565e0-8533-45fd-beac-aae77ecb8719",
    "resource": {
      "resourceType": "QuestionnaireResponse",
      "id": "915565e0-8533-45fd-beac-aae77ecb8719",
      "identifier": {
        "value": "59132"
      },
      "questionnaire": {
        "reference": "urn:uuid:4cb162d2-d4d5-43f7-9c08-c8edd7a41f40"
      },
      "status": "completed",
      "subject": {
        "reference": "urn:uuid:2ee69256-43c3-4a40-af41-4e5e53be5043"
      },
      "context": {
        "reference": "urn:uuid:4073fef6-ee62-4a07-96d0-390a19cd4544"
      },
      "authored": "2021-04-06T11:33:34+00:00"
    }
  }, {
    "fullUrl": "urn:uuid:4cb162d2-d4d5-43f7-9c08-c8edd7a41f40",
    "resource": {
      "resourceType": "Questionnaire",
      "id": "4cb162d2-d4d5-43f7-9c08-c8edd7a41f40",
      "identifier": [ {
        "value": "59132"
      } ],
      "version": "2021-04-06T11:33:34.963Z",
      "status": "active",
      "experimental": false,
      "date": "2021-04-06T11:33:34+00:00",
      "publisher": "User ID: 'MCDONALDD' User name: 'Denzle McDonald' User skill set: 'T3'",
      "lastReviewDate": "2021-04-06",
      "subjectType": [ "Patient" ]
    }
  }, {
    "fullUrl": "urn:uuid:34001781-a8fb-41de-ad9d-c857aee39814",
    "resource": {
      "resourceType": "QuestionnaireResponse",
      "id": "34001781-a8fb-41de-ad9d-c857aee39814",
      "identifier": {
        "value": "59132"
      },
      "questionnaire": {
        "reference": "urn:uuid:ce623210-cf61-4af2-8109-44db3b1e16be"
      },
      "status": "completed",
      "subject": {
        "reference": "urn:uuid:2ee69256-43c3-4a40-af41-4e5e53be5043"
      },
      "context": {
        "reference": "urn:uuid:4073fef6-ee62-4a07-96d0-390a19cd4544"
      },
      "authored": "2021-04-06T11:33:34+00:00"
    }
  }, {
    "fullUrl": "urn:uuid:ce623210-cf61-4af2-8109-44db3b1e16be",
    "resource": {
      "resourceType": "Questionnaire",
      "id": "ce623210-cf61-4af2-8109-44db3b1e16be",
      "identifier": [ {
        "value": "59132"
      } ],
      "version": "2021-04-06T11:33:34.963Z",
      "status": "active",
      "experimental": false,
      "date": "2021-04-06T11:33:34+00:00",
      "publisher": "User ID: 'MCDONALDD' User name: 'Denzle McDonald' User skill set: 'T3'",
      "lastReviewDate": "2021-04-06",
      "subjectType": [ "Patient" ]
    }
  }, {
    "fullUrl": "urn:uuid:c1b98081-b19b-404f-b8a9-b2c1ee05828c",
    "resource": {
      "resourceType": "QuestionnaireResponse",
      "id": "c1b98081-b19b-404f-b8a9-b2c1ee05828c",
      "identifier": {
        "value": "59132"
      },
      "questionnaire": {
        "reference": "urn:uuid:4cd55a81-4165-48be-8d1b-4ce88444d095"
      },
      "status": "completed",
      "subject": {
        "reference": "urn:uuid:2ee69256-43c3-4a40-af41-4e5e53be5043"
      },
      "context": {
        "reference": "urn:uuid:4073fef6-ee62-4a07-96d0-390a19cd4544"
      },
      "authored": "2021-04-06T11:33:34+00:00"
    }
  }, {
    "fullUrl": "urn:uuid:4cd55a81-4165-48be-8d1b-4ce88444d095",
    "resource": {
      "resourceType": "Questionnaire",
      "id": "4cd55a81-4165-48be-8d1b-4ce88444d095",
      "identifier": [ {
        "value": "59132"
      } ],
      "version": "2021-04-06T11:33:34.963Z",
      "status": "active",
      "experimental": false,
      "date": "2021-04-06T11:33:34+00:00",
      "publisher": "User ID: 'MCDONALDD' User name: 'Denzle McDonald' User skill set: 'T3'",
      "lastReviewDate": "2021-04-06",
      "subjectType": [ "Patient" ]
    }
  }, {
    "fullUrl": "urn:uuid:84e420d2-d9fa-419f-b39a-c3399cbcaa1a",
    "resource": {
      "resourceType": "QuestionnaireResponse",
      "id": "84e420d2-d9fa-419f-b39a-c3399cbcaa1a",
      "identifier": {
        "value": "59132"
      },
      "questionnaire": {
        "reference": "urn:uuid:8634a363-c296-4219-aadf-6068a89c8b8f"
      },
      "status": "completed",
      "subject": {
        "reference": "urn:uuid:2ee69256-43c3-4a40-af41-4e5e53be5043"
      },
      "context": {
        "reference": "urn:uuid:4073fef6-ee62-4a07-96d0-390a19cd4544"
      },
      "authored": "2021-04-06T11:33:34+00:00"
    }
  }, {
    "fullUrl": "urn:uuid:8634a363-c296-4219-aadf-6068a89c8b8f",
    "resource": {
      "resourceType": "Questionnaire",
      "id": "8634a363-c296-4219-aadf-6068a89c8b8f",
      "identifier": [ {
        "value": "59132"
      } ],
      "version": "2021-04-06T11:33:34.963Z",
      "status": "active",
      "experimental": false,
      "date": "2021-04-06T11:33:34+00:00",
      "publisher": "User ID: 'MCDONALDD' User name: 'Denzle McDonald' User skill set: 'T3'",
      "lastReviewDate": "2021-04-06",
      "subjectType": [ "Patient" ]
    }
  }, {
    "fullUrl": "urn:uuid:b873c03e-8975-4ecf-a094-6ebfeab6a655",
    "resource": {
      "resourceType": "QuestionnaireResponse",
      "id": "b873c03e-8975-4ecf-a094-6ebfeab6a655",
      "identifier": {
        "value": "59132"
      },
      "questionnaire": {
        "reference": "urn:uuid:5f8d94d6-84b9-4a87-82db-6e4238282c93"
      },
      "status": "completed",
      "subject": {
        "reference": "urn:uuid:2ee69256-43c3-4a40-af41-4e5e53be5043"
      },
      "context": {
        "reference": "urn:uuid:4073fef6-ee62-4a07-96d0-390a19cd4544"
      },
      "authored": "2021-04-06T11:33:34+00:00"
    }
  }, {
    "fullUrl": "urn:uuid:5f8d94d6-84b9-4a87-82db-6e4238282c93",
    "resource": {
      "resourceType": "Questionnaire",
      "id": "5f8d94d6-84b9-4a87-82db-6e4238282c93",
      "identifier": [ {
        "value": "59132"
      } ],
      "version": "2021-04-06T11:33:34.963Z",
      "status": "active",
      "experimental": false,
      "date": "2021-04-06T11:33:34+00:00",
      "publisher": "User ID: 'MCDONALDD' User name: 'Denzle McDonald' User skill set: 'T3'",
      "lastReviewDate": "2021-04-06",
      "subjectType": [ "Patient" ]
    }
  }, {
    "fullUrl": "urn:uuid:e2ee7eb3-e943-45e3-8896-4352c5637129",
    "resource": {
      "resourceType": "Observation",
      "id": "e2ee7eb3-e943-45e3-8896-4352c5637129",
      "status": "final",
      "code": {
        "coding": [ {
          "system": "http://snomed.info/sct",
          "code": "33962009",
          "display": "Presenting complaint"
        } ]
      },
      "subject": {
        "reference": "urn:uuid:2ee69256-43c3-4a40-af41-4e5e53be5043"
      },
      "context": {
        "reference": "urn:uuid:4073fef6-ee62-4a07-96d0-390a19cd4544"
      },
      "valueString": "Pharmacy ITK Testing"
    }
  }, {
    "fullUrl": "urn:uuid:a9a28aa6-dda9-4ac0-9ece-6fcc8ff5c8da",
    "resource": {
      "resourceType": "PractitionerRole",
      "id": "a9a28aa6-dda9-4ac0-9ece-6fcc8ff5c8da",
      "practitioner": {
        "reference": "urn:uuid:3227f6e8-dd25-42ce-8e07-1bfdf0cf6547"
      },
      "organization": {
        "reference": "urn:uuid:25a2a6eb-a908-45b3-91a3-1e8400a30426"
      },
      "code": [ {
        "coding": [ {
          "system": "2.16.840.1.113883.2.1.3.2.4.17.339",
          "code": "DOCTOR",
          "display": "Doctor"
        } ]
      } ]
    }
  }, {
    "fullUrl": "urn:uuid:25a2a6eb-a908-45b3-91a3-1e8400a30426",
    "resource": {
      "resourceType": "Organization",
      "id": "25a2a6eb-a908-45b3-91a3-1e8400a30426",
      "identifier": [ {
        "value": "RYE"
      } ],
      "name": "1.SCAS Administrator (SCAS111)"
    }
  }, {
    "fullUrl": "urn:uuid:b7f451d0-9409-40c7-9888-f1e879ab39fd",
    "resource": {
      "resourceType": "PractitionerRole",
      "id": "b7f451d0-9409-40c7-9888-f1e879ab39fd",
      "practitioner": {
        "reference": "urn:uuid:8da0be23-54c7-427d-aeb2-1a023635f2c4"
      },
      "organization": {
        "reference": "urn:uuid:8a871c07-24b3-4ac2-b460-0a0f31d07da8"
      },
      "code": [ {
        "coding": [ {
          "system": "2.16.840.1.113883.2.1.3.2.4.17.196",
          "code": "R0010",
          "display": "Medical Director"
        } ]
      } ]
    }
  }, {
    "fullUrl": "urn:uuid:8a871c07-24b3-4ac2-b460-0a0f31d07da8",
    "resource": {
      "resourceType": "Organization",
      "id": "8a871c07-24b3-4ac2-b460-0a0f31d07da8",
      "identifier": [ {
        "value": "RYE"
      } ],
      "name": "SCAS111"
    }
  }, {
    "fullUrl": "urn:uuid:adaeeb4a-507c-4dec-acc9-51a3afa00333",
    "resource": {
      "resourceType": "RelatedPerson",
      "id": "adaeeb4a-507c-4dec-acc9-51a3afa00333",
      "patient": {
        "reference": "urn:uuid:2ee69256-43c3-4a40-af41-4e5e53be5043"
      },
      "relationship": {
        "coding": [ {
          "system": "http://hl7.org/fhir/v2/0131",
          "code": "C",
          "display": "Emergency Contact"
        } ]
      },
      "telecom": [ {
        "system": "phone",
        "value": "tel:07948625625"
      } ]
    }
  }, {
    "fullUrl": "urn:uuid:dab92622-9fde-432e-bcbc-d846c64c63bb",
    "resource": {
      "resourceType": "Device",
      "id": "dab92622-9fde-432e-bcbc-d846c64c63bb",
      "model": "111 Adaptor",
      "version": "1.0.0"
    }
  }, {
    "fullUrl": "urn:uuid:64071ca8-9632-4b9b-a31a-55d1db0864eb",
    "resource": {
      "resourceType": "List",
      "id": "64071ca8-9632-4b9b-a31a-55d1db0864eb",
      "status": "current",
      "mode": "working",
      "title": "111 Report List",
      "code": {
        "coding": [ {
          "system": "http://snomed.info/sct",
          "code": "225390008",
          "display": "Triage"
        } ]
      },
      "subject": {
        "reference": "urn:uuid:2ee69256-43c3-4a40-af41-4e5e53be5043"
      },
      "encounter": {
        "reference": "urn:uuid:4073fef6-ee62-4a07-96d0-390a19cd4544"
      },
      "date": "2021-10-11T06:41:46+00:00",
      "source": {
        "reference": "urn:uuid:dab92622-9fde-432e-bcbc-d846c64c63bb"
      },
      "orderedBy": {
        "coding": [ {
          "system": "http://hl7.org/fhir/list-order",
          "code": "event-date",
          "display": "Sorted by Event Date"
        } ]
      },
      "entry": [ {
        "item": {
          "reference": "urn:uuid:629345b6-1610-4898-b484-8a0d522f592c"
        }
      }, {
        "item": {
          "reference": "urn:uuid:7880ff7f-8a97-4c35-b43b-f74ccfc4c3eb"
        }
      }, {
        "item": {
          "reference": "urn:uuid:8da0be23-54c7-427d-aeb2-1a023635f2c4"
        }
      }, {
        "item": {
          "reference": "urn:uuid:3227f6e8-dd25-42ce-8e07-1bfdf0cf6547"
        }
      }, {
        "item": {
          "reference": "urn:uuid:adaeeb4a-507c-4dec-acc9-51a3afa00333"
        }
      }, {
        "item": {
          "reference": "urn:uuid:8a871c07-24b3-4ac2-b460-0a0f31d07da8"
        }
      }, {
        "item": {
          "reference": "urn:uuid:89507367-1afb-45ac-bc2d-28487057e427"
        }
      }, {
        "item": {
          "reference": "urn:uuid:25a2a6eb-a908-45b3-91a3-1e8400a30426"
        }
      }, {
        "item": {
          "reference": "urn:uuid:5240a1d8-eaa0-4369-934f-70eba70956ab"
        }
      }, {
        "item": {
          "reference": "urn:uuid:e2ee7eb3-e943-45e3-8896-4352c5637129"
        }
      }, {
        "item": {
          "reference": "urn:uuid:f6621f88-f468-4767-b17d-8e0b8360db1b"
        }
      }, {
        "item": {
          "reference": "urn:uuid:d014d9ad-63fb-4653-9d4b-6d97df15161b"
        }
      }, {
        "item": {
          "reference": "urn:uuid:c80cd05b-6f52-408d-8141-da4f217ccded"
        }
      }, {
        "item": {
          "reference": "urn:uuid:189b75b9-f507-4fc4-8906-cbf7de906550"
        }
      }, {
        "item": {
          "reference": "urn:uuid:8aafd6d9-9734-4116-b71f-2684589dc889"
        }
      }, {
        "item": {
          "reference": "urn:uuid:7586ba84-a1f0-45bf-b2c9-61f98053ffe6"
        }
      }, {
        "item": {
          "reference": "urn:uuid:19a81afa-1363-46f8-8bb4-56b7e455070a"
        }
      }, {
        "item": {
          "reference": "urn:uuid:8bd366ce-bd5f-4381-b383-426e09001489"
        }
      }, {
        "item": {
          "reference": "urn:uuid:2e0d83eb-e8f8-49e2-8db0-f4d1420592e8"
        }
      }, {
        "item": {
          "reference": "urn:uuid:961ec482-1fbe-46ad-b4bc-48c5b33ec2bd"
        }
      }, {
        "item": {
          "reference": "urn:uuid:22de08d3-7e44-48ca-9424-518153aac26e"
        }
      }, {
        "item": {
          "reference": "urn:uuid:cdce3230-808f-427a-98bb-e803ccdabcf3"
        }
      }, {
        "item": {
          "reference": "urn:uuid:23711fab-e2f9-4cf9-974d-170507199231"
        }
      }, {
        "item": {
          "reference": "urn:uuid:510b59d8-7319-4ccb-b3d9-bba56dfe16c4"
        }
      }, {
        "item": {
          "reference": "urn:uuid:96e86ca2-0d9b-4526-a18f-2bb1e23627fc"
        }
      }, {
        "item": {
          "reference": "urn:uuid:901df320-db3c-4f29-8643-3d403e3f4d3d"
        }
      }, {
        "item": {
          "reference": "urn:uuid:f7d5b404-9cbf-407f-b425-05cf97201563"
        }
      }, {
        "item": {
          "reference": "urn:uuid:26286c21-2523-4854-bbc3-61b76064c6ee"
        }
      }, {
        "item": {
          "reference": "urn:uuid:8f757cce-b8e5-4c57-a906-5560fe872626"
        }
      }, {
        "item": {
          "reference": "urn:uuid:2d93303c-d529-46dd-b1bc-53b7513a222f"
        }
      }, {
        "item": {
          "reference": "urn:uuid:c1b98081-b19b-404f-b8a9-b2c1ee05828c"
        }
      }, {
        "item": {
          "reference": "urn:uuid:d2174b9f-b6b8-4996-ad65-bde803583623"
        }
      }, {
        "item": {
          "reference": "urn:uuid:4ec05c20-5f92-4cb9-92d8-9f051e400d86"
        }
      }, {
        "item": {
          "reference": "urn:uuid:4cd55a81-4165-48be-8d1b-4ce88444d095"
        }
      }, {
        "item": {
          "reference": "urn:uuid:79cab73b-3ea1-4d34-9598-aa0ad0106085"
        }
      }, {
        "item": {
          "reference": "urn:uuid:6bd32a38-f0ea-4ad8-b7c8-53d36eedd914"
        }
      }, {
        "item": {
          "reference": "urn:uuid:53a01a28-ad76-4da2-814b-0daa4239199e"
        }
      }, {
        "item": {
          "reference": "urn:uuid:2ae559fe-19f2-4feb-b0e3-a35cc13d4fc8"
        }
      }, {
        "item": {
          "reference": "urn:uuid:14706a54-a3de-476e-a645-0da914907cd6"
        }
      }, {
        "item": {
          "reference": "urn:uuid:b65d1787-5c16-4a93-824a-b242bfe6295e"
        }
      }, {
        "item": {
          "reference": "urn:uuid:ce623210-cf61-4af2-8109-44db3b1e16be"
        }
      }, {
        "item": {
          "reference": "urn:uuid:2639e8d5-4864-4efb-8d78-bc465d4e35a6"
        }
      }, {
        "item": {
          "reference": "urn:uuid:0deae281-489c-4187-9536-89b3c6c7032c"
        }
      }, {
        "item": {
          "reference": "urn:uuid:7ff84faf-cc79-4557-abcf-bab5f4c0f030"
        }
      }, {
        "item": {
          "reference": "urn:uuid:dd90046a-ed2c-492a-84c3-a05cc8534dad"
        }
      }, {
        "item": {
          "reference": "urn:uuid:f61f9b1e-6a91-4695-b09c-9b370b38aba4"
        }
      }, {
        "item": {
          "reference": "urn:uuid:7680ce2f-6173-4015-a6c1-508d41325de4"
        }
      }, {
        "item": {
          "reference": "urn:uuid:ddda1436-4f52-4a15-8ea4-c1e135dc15dc"
        }
      }, {
        "item": {
          "reference": "urn:uuid:06d7854d-81c6-436c-a816-d3f2a977494b"
        }
      }, {
        "item": {
          "reference": "urn:uuid:93e2ab51-2991-478d-aae7-02caf1a83d3c"
        }
      }, {
        "item": {
          "reference": "urn:uuid:c7ec80fa-7140-42a4-954a-7b5724e2bcd7"
        }
      }, {
        "item": {
          "reference": "urn:uuid:53e3209a-54de-471d-a190-9427ee97705a"
        }
      }, {
        "item": {
          "reference": "urn:uuid:1303ccab-1647-4838-bfcb-14c2af278763"
        }
      }, {
        "item": {
          "reference": "urn:uuid:5600d718-00b5-4f20-8bab-ed318e54ebb1"
        }
      }, {
        "item": {
          "reference": "urn:uuid:6d863894-4d29-43bd-817b-e287d62ba400"
        }
      }, {
        "item": {
          "reference": "urn:uuid:9317cfeb-0340-449c-86d3-00fae8925929"
        }
      }, {
        "item": {
          "reference": "urn:uuid:4da91853-a6bd-4e30-b705-577d80aee7b7"
        }
      }, {
        "item": {
          "reference": "urn:uuid:5c217342-17f8-4b76-b0fb-52264f9b7deb"
        }
      }, {
        "item": {
          "reference": "urn:uuid:b0989dab-42a2-4b02-acfe-3e2d97069d6b"
        }
      }, {
        "item": {
          "reference": "urn:uuid:776d9971-5ce7-4224-a1af-ed2ea3d433f8"
        }
      }, {
        "item": {
          "reference": "urn:uuid:7a49676b-c515-4b46-8be0-ac7f42d58451"
        }
      }, {
        "item": {
          "reference": "urn:uuid:915565e0-8533-45fd-beac-aae77ecb8719"
        }
      }, {
        "item": {
          "reference": "urn:uuid:9df14e43-d9c6-43c7-b991-1101729249d6"
        }
      }, {
        "item": {
          "reference": "urn:uuid:ddd8a2f5-c854-40b2-b155-a0e44225ef25"
        }
      }, {
        "item": {
          "reference": "urn:uuid:cae562ac-a725-40b9-8937-af8fb9e9ac95"
        }
      }, {
        "item": {
          "reference": "urn:uuid:061a22a6-ffe9-4bc6-a5b6-c6e133acf53a"
        }
      }, {
        "item": {
          "reference": "urn:uuid:6c2c3e94-4b40-4e37-9c83-07114879ee82"
        }
      }, {
        "item": {
          "reference": "urn:uuid:b9a74207-6378-4f8c-bccf-e1e6cbc87865"
        }
      }, {
        "item": {
          "reference": "urn:uuid:b159de06-adbd-4c13-aaeb-22bc33fe3bae"
        }
      }, {
        "item": {
          "reference": "urn:uuid:4cb162d2-d4d5-43f7-9c08-c8edd7a41f40"
        }
      }, {
        "item": {
          "reference": "urn:uuid:0a45b20e-6667-4880-8139-d03d4715ea21"
        }
      }, {
        "item": {
          "reference": "urn:uuid:c84b289f-344f-427a-9c84-2f403943b892"
        }
      }, {
        "item": {
          "reference": "urn:uuid:06bd8cbc-8952-4dbf-99a4-39f4891405ec"
        }
      }, {
        "item": {
          "reference": "urn:uuid:7efc8089-936f-4e7d-9e42-df4ee36be2a3"
        }
      }, {
        "item": {
          "reference": "urn:uuid:9720dcb9-d3fc-44de-8441-79ec0058d5f7"
        }
      }, {
        "item": {
          "reference": "urn:uuid:ae05c68c-5dec-48a5-b75b-d59c0c5c2c81"
        }
      }, {
        "item": {
          "reference": "urn:uuid:30eeb737-21a2-4639-8864-29ef0573e88c"
        }
      }, {
        "item": {
          "reference": "urn:uuid:2cbbb0d6-0358-487c-aa78-3c6ceae8f10a"
        }
      }, {
        "item": {
          "reference": "urn:uuid:d0d800fa-160c-4eab-a42c-b1e01b025cad"
        }
      }, {
        "item": {
          "reference": "urn:uuid:c48bce88-5ccf-45c7-9d13-48829674b12b"
        }
      }, {
        "item": {
          "reference": "urn:uuid:3035a74f-281b-4201-866d-725259697b9c"
        }
      }, {
        "item": {
          "reference": "urn:uuid:9885cf49-80ef-475c-9a3c-6c407caafcf0"
        }
      }, {
        "item": {
          "reference": "urn:uuid:aeb3c989-9770-4434-8ee2-e7226af5f689"
        }
      }, {
        "item": {
          "reference": "urn:uuid:39998a77-2930-41d2-a42d-a335fb7780fc"
        }
      }, {
        "item": {
          "reference": "urn:uuid:1b3e0c8b-6910-4d25-ba71-5c8223ba7574"
        }
      }, {
        "item": {
          "reference": "urn:uuid:cc6e0b0b-825b-4155-b43e-5da09a32fa78"
        }
      }, {
        "item": {
          "reference": "urn:uuid:5f8d94d6-84b9-4a87-82db-6e4238282c93"
        }
      }, {
        "item": {
          "reference": "urn:uuid:ed56800b-a9be-4157-bf89-c4cc921260e7"
        }
      }, {
        "item": {
          "reference": "urn:uuid:a55c4863-ddec-4f86-bf36-8c95f18487c2"
        }
      }, {
        "item": {
          "reference": "urn:uuid:ba35f989-79a5-40e0-9b20-3582f97d2ba1"
        }
      }, {
        "item": {
          "reference": "urn:uuid:4241bb80-f093-49a8-94d1-2eaa291d5d95"
        }
      }, {
        "item": {
          "reference": "urn:uuid:ddee358b-ad66-41e4-92e3-7f2e3481da1f"
        }
      }, {
        "item": {
          "reference": "urn:uuid:55954440-a7d4-4d5b-83d4-cbab864e94df"
        }
      }, {
        "item": {
          "reference": "urn:uuid:cf79fb4d-a74e-438c-8983-14ee9137badd"
        }
      }, {
        "item": {
          "reference": "urn:uuid:c9778310-06e4-4f13-90fd-d8ab19788458"
        }
      }, {
        "item": {
          "reference": "urn:uuid:8634a363-c296-4219-aadf-6068a89c8b8f"
        }
      }, {
        "item": {
          "reference": "urn:uuid:d291a7e0-0e13-480a-b87d-fbfb9ab7046c"
        }
      }, {
        "item": {
          "reference": "urn:uuid:d160d83c-f288-4002-92e7-02905b8ac0cd"
        }
      }, {
        "item": {
          "reference": "urn:uuid:f3999671-5c71-43ff-8905-0bdbec62bec3"
        }
      }, {
        "item": {
          "reference": "urn:uuid:9c1f214e-52dd-4f08-b0de-dd80e66a506a"
        }
      }, {
        "item": {
          "reference": "urn:uuid:a3e2cd1d-1b48-4085-88f8-b7a062cc1b47"
        }
      }, {
        "item": {
          "reference": "urn:uuid:9410e9ce-ac39-4f63-84cb-73a9bfc69611"
        }
      }, {
        "item": {
          "reference": "urn:uuid:c6ee1def-8b79-4407-9a85-fc5216af1d8a"
        }
      }, {
        "item": {
          "reference": "urn:uuid:0936b61e-ec45-4b76-a1ea-de915b98e008"
        }
      }, {
        "item": {
          "reference": "urn:uuid:49d07acc-e7c6-4f5e-8021-6fdccc3e3fe9"
        }
      }, {
        "item": {
          "reference": "urn:uuid:3a6334f6-5620-483d-b1fa-44282422fea8"
        }
      }, {
        "item": {
          "reference": "urn:uuid:e87dd6fb-ec72-42ec-b0a3-a83b21d8d462"
        }
      }, {
        "item": {
          "reference": "urn:uuid:e43d5fd3-5b87-453c-9a8a-b6e3ef2cf965"
        }
      }, {
        "item": {
          "reference": "urn:uuid:cf87da14-0b84-4044-af18-fa20d45c7515"
        }
      }, {
        "item": {
          "reference": "urn:uuid:a17e5bb8-e9c2-4432-8a6f-8b023b46c0b6"
        }
      }, {
        "item": {
          "reference": "urn:uuid:78a5df8a-2057-4b9a-a884-4b5a62f17f9a"
        }
      }, {
        "item": {
          "reference": "urn:uuid:ab914ef4-c49c-46fa-b539-ee2f4e363283"
        }
      }, {
        "item": {
          "reference": "urn:uuid:6ae6ad3e-6b1d-4d7e-8617-05c0746af22b"
        }
      }, {
        "item": {
          "reference": "urn:uuid:9338b9fd-f5ff-4ced-ab65-2ec91e9e955b"
        }
      }, {
        "item": {
          "reference": "urn:uuid:51dddb67-5ddf-4fcd-8c37-624c75bec625"
        }
      }, {
        "item": {
          "reference": "urn:uuid:2c170836-c75c-45a4-a6d1-eaeb2320fb18"
        }
      }, {
        "item": {
          "reference": "urn:uuid:62053716-d613-4021-b860-363aeebbd2d2"
        }
      }, {
        "item": {
          "reference": "urn:uuid:ed558683-5039-4425-ab9b-505fc1e2e84a"
        }
      }, {
        "item": {
          "reference": "urn:uuid:d87267f2-8d98-4918-8e0c-0b154e28ab34"
        }
      }, {
        "item": {
          "reference": "urn:uuid:5c4141bb-ebb7-4d6d-8115-d8c08ee75d56"
        }
      }, {
        "item": {
          "reference": "urn:uuid:ca30f930-0bbd-48a7-83c5-4febbf76f97a"
        }
      }, {
        "item": {
          "reference": "urn:uuid:8ae0962b-291e-4c32-a666-4bf7cad14f25"
        }
      }, {
        "item": {
          "reference": "urn:uuid:88fbea59-30a0-45d5-91e5-4e04d238469c"
        }
      }, {
        "item": {
          "reference": "urn:uuid:e25320e5-c6b0-4fc7-bd47-d29c1701c048"
        }
      }, {
        "item": {
          "reference": "urn:uuid:fa0f8b0e-713f-4049-b77c-f1b371fc330c"
        }
      }, {
        "item": {
          "reference": "urn:uuid:b873c03e-8975-4ecf-a094-6ebfeab6a655"
        }
      }, {
        "item": {
          "reference": "urn:uuid:ceccc797-97b4-4005-8789-a34f7a451e42"
        }
      }, {
        "item": {
          "reference": "urn:uuid:b0533a29-27f9-4208-adc0-192f8a779130"
        }
      }, {
        "item": {
          "reference": "urn:uuid:bf57519b-5290-40d9-8d44-770995c7d528"
        }
      }, {
        "item": {
          "reference": "urn:uuid:a9f55220-af59-4d72-8fd9-ea70f7e5eefa"
        }
      }, {
        "item": {
          "reference": "urn:uuid:becc5a73-8655-40da-83de-24485e2fc639"
        }
      }, {
        "item": {
          "reference": "urn:uuid:2e402e71-192b-40a1-8e9c-46d6f870c03d"
        }
      }, {
        "item": {
          "reference": "urn:uuid:c22e0cad-7362-4763-8dd9-a98fcd7539cd"
        }
      }, {
        "item": {
          "reference": "urn:uuid:94a0269d-387d-4da1-a9b5-2da167b8f9bb"
        }
      }, {
        "item": {
          "reference": "urn:uuid:b97d14cf-20d6-4924-a280-4b75defed1e6"
        }
      }, {
        "item": {
          "reference": "urn:uuid:46c26346-9664-4dfb-b720-f7f5c096d980"
        }
      }, {
        "item": {
          "reference": "urn:uuid:748620c3-79f8-4e05-a648-7c9a49cc67c8"
        }
      }, {
        "item": {
          "reference": "urn:uuid:93cef408-56dc-4172-81e5-ff03a7eb3855"
        }
      }, {
        "item": {
          "reference": "urn:uuid:97b905bb-ad0d-496a-a0dd-1acd08221946"
        }
      }, {
        "item": {
          "reference": "urn:uuid:311748c5-26b4-415d-a158-68a5a78a1465"
        }
      }, {
        "item": {
          "reference": "urn:uuid:60621e78-aec3-4aad-a799-501cff95b2dd"
        }
      }, {
        "item": {
          "reference": "urn:uuid:f0946e7a-b83c-4c04-b58a-9993257f8073"
        }
      }, {
        "item": {
          "reference": "urn:uuid:7627d42b-20e7-4b75-9ad1-8c5ddc6c9b1c"
        }
      }, {
        "item": {
          "reference": "urn:uuid:0b491558-ce03-40cc-8860-4cfd4d5af403"
        }
      }, {
        "item": {
          "reference": "urn:uuid:1844d675-646b-4550-a347-05dcb285966b"
        }
      }, {
        "item": {
          "reference": "urn:uuid:34001781-a8fb-41de-ad9d-c857aee39814"
        }
      }, {
        "item": {
          "reference": "urn:uuid:f4bc4281-f6c6-45fa-8b8b-2cb74b34b34f"
        }
      }, {
        "item": {
          "reference": "urn:uuid:84e420d2-d9fa-419f-b39a-c3399cbcaa1a"
        }
      }, {
        "item": {
          "reference": "urn:uuid:1d6a6661-a295-456a-8c78-801737ba3871"
        }
      }, {
        "item": {
          "reference": "urn:uuid:db2d83da-3a8e-4fef-8ac1-eea6387d2e99"
        }
      }, {
        "item": {
          "reference": "urn:uuid:075a2ee7-b139-4748-ac27-a6cbb34ce94c"
        }
      }, {
        "item": {
          "reference": "urn:uuid:091fed78-86e7-4629-8fae-3a2ab5a0092d"
        }
      }, {
        "item": {
          "reference": "urn:uuid:ec06ee63-8499-47b7-aa5f-374d0d8b141f"
        }
      }, {
        "item": {
          "reference": "urn:uuid:3843f393-b7ef-4f87-9739-8b617337a2f6"
        }
      }, {
        "item": {
          "reference": "urn:uuid:b1929a48-5cf6-4ab3-afbd-fc93592fbf22"
        }
      }, {
        "item": {
          "reference": "urn:uuid:0d9de4cd-93a6-4331-b05b-4e2fe02d2218"
        }
      }, {
        "item": {
          "reference": "urn:uuid:c5aa4406-2011-4809-aab3-5ebd26acd88b"
        }
      }, {
        "item": {
          "reference": "urn:uuid:8f580321-92bf-4eeb-9f09-620601ea7fcf"
        }
      } ]
    }
  } ]
}