{
  "resourceType": "Bundle",
  "identifier": {
    "type": {
      "text": "ClinicalDocument VersionNumber"
    },
    "value": "1"
  },
  "type": "message",
  "entry": [ {
    "fullUrl": "urn:uuid:C34D38AA-2A35-4E0C-AAB2-BCC8D397736A",
    "resource": {
      "resourceType": "MessageHeader",
      "id": "C34D38AA-2A35-4E0C-AAB2-BCC8D397736A",
      "event": {
        "system": "https://fhir.nhs.uk/STU3/CodeSystem/EventType-1",
        "code": "referral-1",
        "display": "Referral"
      },
      "destination": [ {
        "endpoint": "urn:nhs-uk:addressing:ods:A82018:DOSServiceID:136753"
      } ],
      "timestamp": "2021-08-03T13:07:14.000+00:00",
      "source": {
        "name": "NHS 111 Adaptor",
        "endpoint": "http://localhost:8080/report"
      },
      "reason": {
        "coding": [ {
          "system": "urn:nhs-itk:ns:201005:interaction",
          "code": "urn:nhs-itk:interaction:primaryGeneralPractitionerRecipientNHS111CDADocument-v2-0"
        } ]
      }
    }
  }, {
    "fullUrl": "urn:uuid:3ebdbe41-5a20-4017-810a-63f1890109db",
    "resource": {
      "resourceType": "Encounter",
      "id": "3ebdbe41-5a20-4017-810a-63f1890109db",
      "identifier": [ {
        "system": "2.16.840.1.113883.2.1.3.2.4.18.49",
        "value": "6C072313-DFFB-4D60-9416-43B044FDBA9F"
      }, {
        "system": "2.16.840.1.113883.2.1.3.2.4.18.34",
        "value": "1766759"
      }, {
        "system": "2.16.840.1.113883.2.1.3.2.4.18.35",
        "value": "1766759"
      } ],
      "status": "finished",
      "type": [ {
        "text": "111 Encounter Referral"
      } ],
      "subject": {
        "reference": "urn:uuid:6c494d1b-a31b-4e10-88c4-69acbef16c46"
      },
      "participant": [ {
        "type": [ {
          "coding": [ {
            "system": "http://hl7.org/fhir/ValueSet/encounter-participant-type",
            "code": "PPRF",
            "display": "Author"
          } ]
        } ],
        "individual": {
          "reference": "urn:uuid:5d6b1112-67b0-4599-9f1f-e4ab6e39529a"
        }
      } ],
      "period": {
        "start": "2021-08-03T13:07:14+00:00"
      },
      "location": [ {
        "location": {
          "reference": "urn:uuid:2550af09-f10a-4a8c-b266-7fcc8e9d6df0"
        },
        "status": "active"
      }, {
        "location": {
          "reference": "urn:uuid:58de4126-1036-41dd-8018-4e68f79f21d1"
        },
        "status": "completed"
      } ],
      "serviceProvider": {
        "reference": "urn:uuid:983df471-5d42-4bca-82e4-44a4d9bb8323"
      }
    }
  }, {
    "fullUrl": "urn:uuid:983df471-5d42-4bca-82e4-44a4d9bb8323",
    "resource": {
      "resourceType": "Organization",
      "id": "983df471-5d42-4bca-82e4-44a4d9bb8323",
      "active": true,
      "type": [ {
        "text": "CST"
      } ],
      "name": "NWAS 111"
    }
  }, {
    "fullUrl": "urn:uuid:5d6b1112-67b0-4599-9f1f-e4ab6e39529a",
    "resource": {
      "resourceType": "Practitioner",
      "id": "5d6b1112-67b0-4599-9f1f-e4ab6e39529a",
      "active": true,
      "name": [ {
        "text": "AndrewJ.Walford"
      } ]
    }
  }, {
    "fullUrl": "urn:uuid:2550af09-f10a-4a8c-b266-7fcc8e9d6df0",
    "resource": {
      "resourceType": "Location",
      "id": "2550af09-f10a-4a8c-b266-7fcc8e9d6df0",
      "managingOrganization": {
        "reference": "urn:uuid:f8222e84-0a8d-4620-a05b-d2195593dc90"
      }
    }
  }, {
    "fullUrl": "urn:uuid:f8222e84-0a8d-4620-a05b-d2195593dc90",
    "resource": {
      "resourceType": "Organization",
      "id": "f8222e84-0a8d-4620-a05b-d2195593dc90",
      "identifier": [ {
        "value": "A82018"
      } ],
      "type": [ {
        "text": "GP Practice"
      } ],
      "name": "Spencer St Surgery",
      "telecom": [ {
        "system": "phone",
        "value": "tel:01228529171",
        "use": "work"
      } ],
      "address": [ {
        "use": "work",
        "line": [ "Spencer Street Surgery", "10 Spencer Street", "Carlisle" ],
        "postalCode": "CA1 1BP"
      } ]
    }
  }, {
    "fullUrl": "urn:uuid:58de4126-1036-41dd-8018-4e68f79f21d1",
    "resource": {
      "resourceType": "Location",
      "id": "58de4126-1036-41dd-8018-4e68f79f21d1",
      "address": {
        "type": "physical",
        "line": [ "North West Ambulance Service Nhs Trust Salkeld Hall", "Infirmary Street", "Carlisle" ],
        "postalCode": "CA2 7AN"
      }
    }
  }, {
    "fullUrl": "urn:uuid:6c494d1b-a31b-4e10-88c4-69acbef16c46",
    "resource": {
      "resourceType": "Patient",
      "id": "6c494d1b-a31b-4e10-88c4-69acbef16c46",
      "active": true,
      "name": [ {
        "use": "official",
        "family": "Please Disregard",
        "given": [ "Dx09 Test" ]
      } ],
      "telecom": [ {
        "system": "phone",
        "value": "tel:07798501130",
        "use": "mobile"
      }, {
        "system": "phone",
        "value": "tel:07798501130"
      } ],
      "gender": "male",
      "birthDate": "1980-01-01",
      "address": [ {
        "use": "home",
        "line": [ "North West Ambulance Service Nhs Trust Salkeld Hall", "Infirmary Street", "Carlisle" ],
        "postalCode": "CA2 7AN"
      }, {
        "type": "physical",
        "line": [ "North West Ambulance Service Nhs Trust Salkeld Hall", "Infirmary Street", "Carlisle" ],
        "postalCode": "CA2 7AN"
      } ],
      "generalPractitioner": [ {
        "reference": "urn:uuid:d4ff126e-6dfc-453c-8afa-47d76c078af9"
      } ]
    }
  }, {
    "fullUrl": "urn:uuid:d4ff126e-6dfc-453c-8afa-47d76c078af9",
    "resource": {
      "resourceType": "Organization",
      "id": "d4ff126e-6dfc-453c-8afa-47d76c078af9",
      "identifier": [ {
        "value": "A82018"
      } ],
      "type": [ {
        "text": "GP Practice"
      } ],
      "name": "Spencer St Surgery",
      "telecom": [ {
        "system": "phone",
        "value": "tel:01228529171",
        "use": "work"
      } ],
      "address": [ {
        "use": "work",
        "line": [ "Spencer Street Surgery", "10 Spencer Street", "Carlisle" ],
        "postalCode": "CA1 1BP"
      } ]
    }
  }, {
    "fullUrl": "urn:uuid:1af88683-7989-41c0-88e6-3d54e751b58f",
    "resource": {
      "resourceType": "HealthcareService",
      "id": "1af88683-7989-41c0-88e6-3d54e751b58f",
      "active": true,
      "providedBy": {
        "reference": "urn:uuid:3c65faed-cca0-437a-9e0b-74bc66a65703"
      },
      "location": [ {
        "reference": "urn:uuid:cfcf2168-47af-4940-a7cb-a9bb535a742b"
      } ],
      "name": "Spencer St Surgery",
      "telecom": [ {
        "system": "phone",
        "value": "tel:01228529171",
        "use": "work"
      } ]
    }
  }, {
    "fullUrl": "urn:uuid:cfcf2168-47af-4940-a7cb-a9bb535a742b",
    "resource": {
      "resourceType": "Location",
      "id": "cfcf2168-47af-4940-a7cb-a9bb535a742b",
      "telecom": [ {
        "system": "phone",
        "value": "tel:01228529171",
        "use": "work"
      } ],
      "address": {
        "use": "work",
        "line": [ "Spencer Street Surgery", "10 Spencer Street", "Carlisle" ],
        "postalCode": "CA1 1BP"
      },
      "managingOrganization": {
        "reference": "urn:uuid:3c65faed-cca0-437a-9e0b-74bc66a65703"
      }
    }
  }, {
    "fullUrl": "urn:uuid:3c65faed-cca0-437a-9e0b-74bc66a65703",
    "resource": {
      "resourceType": "Organization",
      "id": "3c65faed-cca0-437a-9e0b-74bc66a65703",
      "identifier": [ {
        "value": "A82018"
      } ],
      "type": [ {
        "coding": [ {
          "code": "PRCP",
          "display": "Spencer St Surgery"
        } ]
      } ],
      "name": "Spencer St Surgery"
    }
  }, {
    "fullUrl": "urn:uuid:012dfbd5-ee3d-4c77-b1df-1511f0605d11",
    "resource": {
      "resourceType": "ReferralRequest",
      "id": "012dfbd5-ee3d-4c77-b1df-1511f0605d11",
      "status": "active",
      "intent": "plan",
      "priority": "routine",
      "subject": {
        "reference": "urn:uuid:6c494d1b-a31b-4e10-88c4-69acbef16c46"
      },
      "context": {
        "reference": "urn:uuid:3ebdbe41-5a20-4017-810a-63f1890109db"
      },
      "occurrencePeriod": {
        "start": "2021-10-11T06:41:47+00:00",
        "end": "2021-10-11T07:41:47+00:00"
      },
      "authoredOn": "2021-08-03T12:36:56+00:00",
      "requester": {
        "agent": {
          "reference": "urn:uuid:f1d2da99-aa2a-4117-9f86-9f1bebb17022"
        },
        "onBehalfOf": {
          "reference": "urn:uuid:983df471-5d42-4bca-82e4-44a4d9bb8323"
        }
      },
      "recipient": [ {
        "reference": "urn:uuid:11d5d72c-5f94-4d89-9db8-b17611ed1a7b"
      }, {
        "reference": "urn:uuid:1af88683-7989-41c0-88e6-3d54e751b58f"
      } ],
      "reasonReference": [ {
        "reference": "urn:uuid:d10b7f4a-2bc8-4b84-9d6f-e7c9ddbc4380"
      } ],
      "supportingInfo": [ {
        "reference": "urn:uuid:f632df04-ede9-4685-abaa-ddaaf4e9dcb5"
      } ]
    }
  }, {
    "fullUrl": "urn:uuid:f632df04-ede9-4685-abaa-ddaaf4e9dcb5",
    "resource": {
      "resourceType": "ProcedureRequest",
      "id": "f632df04-ede9-4685-abaa-ddaaf4e9dcb5",
      "status": "active",
      "intent": "plan",
      "priority": "routine",
      "doNotPerform": false,
      "code": {
        "coding": [ {
          "system": "2.16.840.1.113883.2.1.3.2.4.17.325",
          "code": "Dx09",
          "display": "For Persistent Or Recurrent Symptoms: Get In Touch With A Local Service For A Non-urgent Appointment"
        } ]
      },
      "subject": {
        "reference": "urn:uuid:6c494d1b-a31b-4e10-88c4-69acbef16c46"
      },
      "occurrencePeriod": {
        "start": "2021-10-11T06:41:47+00:00",
        "end": "2021-10-11T07:41:47+00:00"
      },
      "reasonReference": [ {
        "reference": "urn:uuid:d10b7f4a-2bc8-4b84-9d6f-e7c9ddbc4380"
      } ]
    }
  }, {
    "fullUrl": "urn:uuid:11d5d72c-5f94-4d89-9db8-b17611ed1a7b",
    "resource": {
      "resourceType": "Practitioner",
      "id": "11d5d72c-5f94-4d89-9db8-b17611ed1a7b",
      "active": true,
      "address": [ {
        "type": "physical",
        "line": [ "Spencer Street Surgery", "Spencer Street", "Carlisle" ],
        "postalCode": "CA1 1BP"
      } ]
    }
  }, {
    "fullUrl": "urn:uuid:ed0b4e77-9b20-47be-aee0-a649872425a8",
    "resource": {
      "resourceType": "Composition",
      "id": "ed0b4e77-9b20-47be-aee0-a649872425a8",
      "identifier": {
        "use": "usual",
        "value": "B5A4AC85-5A10-4D08-B956-83421A24BB81"
      },
      "status": "final",
      "type": {
        "coding": [ {
          "system": "http://snomed.info/sct",
          "code": "371531000",
          "display": "Report of clinical encounter (record artifact)"
        } ]
      },
      "subject": {
        "reference": "urn:uuid:6c494d1b-a31b-4e10-88c4-69acbef16c46"
      },
      "encounter": {
        "reference": "urn:uuid:3ebdbe41-5a20-4017-810a-63f1890109db"
      },
      "date": "2021-10-11T06:41:47+00:00",
      "author": [ {
        "reference": "urn:uuid:5d6b1112-67b0-4599-9f1f-e4ab6e39529a"
      } ],
      "title": "111 Report",
      "confidentiality": "N",
      "section": [ {
        "section": [ {
          "title": "Patient's Reported Condition",
          "text": {
            "status": "generated",
            "div": "<div xmlns=\"http://www.w3.org/1999/xhtml\">**test From Nwas111 - No Action Required - Please Disregard Test</div>"
          }
        }, {
          "title": "Case Summary",
          "text": {
            "status": "generated",
            "div": "<div xmlns=\"http://www.w3.org/1999/xhtml\">&lt;content styleCode=&quot;bold&quot;&gt;Pathways Disposition: Dx09&lt;/content&gt;\n                                                    &lt;br/&gt;\n                                                    &lt;content&gt;For Persistent Or Recurrent Symptoms: Get In Touch With A Local Service For A Non-urgent Appointment&lt;/content&gt;\n                                                    &lt;br/&gt;\n                                                    &lt;br/&gt;\n                                                    &lt;content styleCode=&quot;bold&quot;&gt;Consultation Summary:&lt;/content&gt;\n                                                    &lt;br/&gt;\n                                                    &lt;content&gt;Illness - '**Test From NWAS111 - No Action required - Please Disregard Test case**'&lt;/content&gt;\n                                                    &lt;br/&gt;\n                                                    &lt;content&gt;Warm to touch&lt;/content&gt;\n                                                    &lt;br/&gt;\n                                                    &lt;content&gt;Head lice&lt;/content&gt;\n                                                    &lt;br/&gt;\n                                                    &lt;content&gt;Head lice contact&lt;/content&gt;\n                                                    &lt;br/&gt;\n                                                    &lt;content&gt;Recent sudden loss of clumps of hair&lt;/content&gt;\n                                                    &lt;br/&gt;\n                                                    &lt;br/&gt;\n                                                    &lt;content styleCode=&quot;bold&quot;&gt;Pathways Assessment:&lt;/content&gt;\n                                                    &lt;br/&gt;\n                                                    &lt;content&gt;An injury or health problem was the reason for the contact.&lt;/content&gt;\n                                                    &lt;br/&gt;\n                                                    &lt;content&gt;User comment - '**Test From NWAS111 - No Action required - Please Disregard Test case**'&lt;/content&gt;\n                                                    &lt;br/&gt;\n                                                    &lt;content&gt;Heavy bleeding had not occurred in the previous 2 hours.&lt;/content&gt;\n                                                    &lt;br/&gt;\n                                                    &lt;content&gt;An illness or health problem was the main problem.&lt;/content&gt;\n                                                    &lt;br/&gt;\n                                                    &lt;content&gt;User comment - '**Test From NWAS111 - No Action required - Please Disregard Test case**'&lt;/content&gt;\n                                                    &lt;br/&gt;\n                                                    &lt;content&gt;The individual was not fighting for breath.&lt;/content&gt;\n                                                    &lt;br/&gt;\n                                                    &lt;content&gt;The main reason for the assessment was not an allergic reaction, heart attack, chest/upper back pain, probable stroke, recent fit/seizure or suicide attempt.&lt;/content&gt;\n                                                    &lt;br/&gt;\n                                                    &lt;content&gt;The main reason for contact was not new confusion, declared diabetic hypo/hyperglycaemia, or ICD shock.&lt;/content&gt;\n                                                    &lt;br/&gt;\n                                                    &lt;content&gt;The skin on the torso felt normal, warm or hot.&lt;/content&gt;\n                                                    &lt;br/&gt;\n                                                    &lt;content&gt;Pathway selected - Skin Problems&lt;/content&gt;\n                                                    &lt;br/&gt;\n                                                    &lt;content&gt;The main problem was not a rash, itch, jaundice, skin lumps or abnormal bruising.&lt;/content&gt;\n                                                    &lt;br/&gt;\n                                                    &lt;content&gt;The main problem was head lice.&lt;/content&gt;\n                                                    &lt;br/&gt;\n                                                    &lt;content&gt;There had been contact with somebody with head lice.&lt;/content&gt;\n                                                    &lt;br/&gt;\n                                                    &lt;content&gt;There was recent patchy hair loss.&lt;/content&gt;\n                                                    &lt;br/&gt;\n                                                    &lt;content&gt;User comment - 'GP - Spencer Street Surgery - Cumbria (Home GP)'&lt;/content&gt;\n                                                    &lt;br/&gt;\n                                                    &lt;br/&gt;\n                                                    &lt;content styleCode=&quot;bold&quot;&gt;Advice Given:&lt;/content&gt;\n                                                    &lt;br/&gt;\n                                                    &lt;content&gt;Head lice is common. Speak to a pharmacist for advice on suitable treatments.&lt;/content&gt;\n                                                    &lt;br/&gt;\n                                                    &lt;br/&gt;</div>"
          }
        } ]
      }, {
        "title": "ReferralRequest",
        "entry": [ {
          "reference": "urn:uuid:012dfbd5-ee3d-4c77-b1df-1511f0605d11"
        } ]
      }, {
        "title": "QuestionnaireResponse",
        "entry": [ {
          "reference": "urn:uuid:96192cbc-60c2-4bd3-9307-87f73b141ab4"
        } ]
      }, {
        "title": "QuestionnaireResponse",
        "entry": [ {
          "reference": "urn:uuid:b883344b-a1da-46a0-b901-2babce05909d"
        } ]
      }, {
        "title": "QuestionnaireResponse",
        "entry": [ {
          "reference": "urn:uuid:ac7edf23-49bd-40ec-b60e-42e30fbfc5d0"
        } ]
      }, {
        "title": "QuestionnaireResponse",
        "entry": [ {
          "reference": "urn:uuid:873f45da-b280-4cea-8716-2886d14ca93e"
        } ]
      }, {
        "title": "QuestionnaireResponse",
        "entry": [ {
          "reference": "urn:uuid:781e560d-0ba8-41a0-803a-d463b894025c"
        } ]
      }, {
        "title": "QuestionnaireResponse",
        "entry": [ {
          "reference": "urn:uuid:6032c966-b051-4ca7-b446-ec5aa257bd0d"
        } ]
      }, {
        "title": "QuestionnaireResponse",
        "entry": [ {
          "reference": "urn:uuid:d2320806-384f-4dc5-8901-f60812c60505"
        } ]
      }, {
        "title": "QuestionnaireResponse",
        "entry": [ {
          "reference": "urn:uuid:6c679100-1ef5-4885-b8ff-b9ac3eb433ac"
        } ]
      }, {
        "title": "QuestionnaireResponse",
        "entry": [ {
          "reference": "urn:uuid:debb1291-f6c2-4644-b199-07d880eb7813"
        } ]
      }, {
        "title": "QuestionnaireResponse",
        "entry": [ {
          "reference": "urn:uuid:ba6ab5ce-0270-49d7-afa1-0e4e7bb98e33"
        } ]
      }, {
        "title": "QuestionnaireResponse",
        "entry": [ {
          "reference": "urn:uuid:14587182-d711-4745-b48e-bd4494ce09d7"
        } ]
      }, {
        "title": "QuestionnaireResponse",
        "entry": [ {
          "reference": "urn:uuid:514f3b40-a04f-45ba-ad3c-4a04400e0e6f"
        } ]
      }, {
        "title": "QuestionnaireResponse",
        "entry": [ {
          "reference": "urn:uuid:f8193ad8-13e1-49bf-ac4b-5a8d1c187de6"
        } ]
      }, {
        "title": "QuestionnaireResponse",
        "entry": [ {
          "reference": "urn:uuid:94df2760-ef88-4a41-961e-8591bdba7373"
        } ]
      }, {
        "title": "QuestionnaireResponse",
        "entry": [ {
          "reference": "urn:uuid:7cafd6dd-087f-4667-bc24-6f9c52716759"
        } ]
      }, {
        "title": "QuestionnaireResponse",
        "entry": [ {
          "reference": "urn:uuid:f687faec-3618-4427-b87c-b42850b40adc"
        } ]
      }, {
        "title": "QuestionnaireResponse",
        "entry": [ {
          "reference": "urn:uuid:7126acaf-1826-4584-b4ec-75171627162c"
        } ]
      }, {
        "title": "QuestionnaireResponse",
        "entry": [ {
          "reference": "urn:uuid:a4ede45f-facd-460a-b109-58f6e19d54d6"
        } ]
      }, {
        "title": "QuestionnaireResponse",
        "entry": [ {
          "reference": "urn:uuid:8ddab887-9182-4726-9b7e-5a183061da24"
        } ]
      }, {
        "title": "QuestionnaireResponse",
        "entry": [ {
          "reference": "urn:uuid:5bf5ae5e-2a60-4768-a2e0-88a492f94884"
        } ]
      }, {
        "title": "QuestionnaireResponse",
        "entry": [ {
          "reference": "urn:uuid:91801369-5d96-453f-9f1f-465fa7ed5b44"
        } ]
      } ]
    }
  }, {
    "fullUrl": "urn:uuid:eaacd12a-b16b-49d5-bb1e-b5f7dcab8510",
    "resource": {
      "resourceType": "Consent",
      "id": "eaacd12a-b16b-49d5-bb1e-b5f7dcab8510",
      "identifier": {
        "use": "usual",
        "value": "B5A4AC85-5A10-4D08-B956-83421A24BB81"
      },
      "status": "active",
      "patient": {
        "reference": "urn:uuid:6c494d1b-a31b-4e10-88c4-69acbef16c46"
      },
      "period": {
        "start": "2021-08-03T13:07:14+00:00"
      },
      "consentingParty": [ {
        "reference": "urn:uuid:6c494d1b-a31b-4e10-88c4-69acbef16c46"
      } ],
      "action": [ {
        "coding": [ {
          "system": "http://snomed.info/sct",
          "code": "425691002",
          "display": "Consent given for electronic record sharing"
        } ],
        "text": "Consent given for electronic record sharing"
      } ],
      "organization": [ {
        "reference": "urn:uuid:983df471-5d42-4bca-82e4-44a4d9bb8323"
      } ],
      "policyRule": "http://hl7.org/fhir/ConsentPolicy/opt-out",
      "data": [ {
        "meaning": "related",
        "reference": {
          "reference": "urn:uuid:3ebdbe41-5a20-4017-810a-63f1890109db"
        }
      } ]
    }
  }, {
    "fullUrl": "urn:uuid:d10b7f4a-2bc8-4b84-9d6f-e7c9ddbc4380",
    "resource": {
      "resourceType": "Condition",
      "id": "d10b7f4a-2bc8-4b84-9d6f-e7c9ddbc4380",
      "clinicalStatus": "active",
      "verificationStatus": "unknown",
      "subject": {
        "reference": "urn:uuid:6c494d1b-a31b-4e10-88c4-69acbef16c46"
      },
      "context": {
        "reference": "urn:uuid:3ebdbe41-5a20-4017-810a-63f1890109db"
      },
      "evidence": [ {
        "detail": [ {
          "reference": "urn:uuid:96192cbc-60c2-4bd3-9307-87f73b141ab4"
        } ]
      }, {
        "detail": [ {
          "reference": "urn:uuid:b883344b-a1da-46a0-b901-2babce05909d"
        } ]
      }, {
        "detail": [ {
          "reference": "urn:uuid:ac7edf23-49bd-40ec-b60e-42e30fbfc5d0"
        } ]
      }, {
        "detail": [ {
          "reference": "urn:uuid:873f45da-b280-4cea-8716-2886d14ca93e"
        } ]
      }, {
        "detail": [ {
          "reference": "urn:uuid:781e560d-0ba8-41a0-803a-d463b894025c"
        } ]
      }, {
        "detail": [ {
          "reference": "urn:uuid:6032c966-b051-4ca7-b446-ec5aa257bd0d"
        } ]
      }, {
        "detail": [ {
          "reference": "urn:uuid:d2320806-384f-4dc5-8901-f60812c60505"
        } ]
      }, {
        "detail": [ {
          "reference": "urn:uuid:6c679100-1ef5-4885-b8ff-b9ac3eb433ac"
        } ]
      }, {
        "detail": [ {
          "reference": "urn:uuid:debb1291-f6c2-4644-b199-07d880eb7813"
        } ]
      }, {
        "detail": [ {
          "reference": "urn:uuid:ba6ab5ce-0270-49d7-afa1-0e4e7bb98e33"
        } ]
      }, {
        "detail": [ {
          "reference": "urn:uuid:14587182-d711-4745-b48e-bd4494ce09d7"
        } ]
      }, {
        "detail": [ {
          "reference": "urn:uuid:514f3b40-a04f-45ba-ad3c-4a04400e0e6f"
        } ]
      }, {
        "detail": [ {
          "reference": "urn:uuid:f8193ad8-13e1-49bf-ac4b-5a8d1c187de6"
        } ]
      }, {
        "detail": [ {
          "reference": "urn:uuid:94df2760-ef88-4a41-961e-8591bdba7373"
        } ]
      }, {
        "detail": [ {
          "reference": "urn:uuid:7cafd6dd-087f-4667-bc24-6f9c52716759"
        } ]
      }, {
        "detail": [ {
          "reference": "urn:uuid:f687faec-3618-4427-b87c-b42850b40adc"
        } ]
      }, {
        "detail": [ {
          "reference": "urn:uuid:7126acaf-1826-4584-b4ec-75171627162c"
        } ]
      }, {
        "detail": [ {
          "reference": "urn:uuid:a4ede45f-facd-460a-b109-58f6e19d54d6"
        } ]
      }, {
        "detail": [ {
          "reference": "urn:uuid:8ddab887-9182-4726-9b7e-5a183061da24"
        } ]
      }, {
        "detail": [ {
          "reference": "urn:uuid:5bf5ae5e-2a60-4768-a2e0-88a492f94884"
        } ]
      }, {
        "detail": [ {
          "reference": "urn:uuid:91801369-5d96-453f-9f1f-465fa7ed5b44"
        } ]
      } ]
    }
  }, {
    "fullUrl": "urn:uuid:96192cbc-60c2-4bd3-9307-87f73b141ab4",
    "resource": {
      "resourceType": "QuestionnaireResponse",
      "id": "96192cbc-60c2-4bd3-9307-87f73b141ab4",
      "identifier": {
        "value": "1766759"
      },
      "questionnaire": {
        "reference": "urn:uuid:527d50cf-1420-40c6-8ba5-4d1da5b4ab7d"
      },
      "status": "completed",
      "subject": {
        "reference": "urn:uuid:6c494d1b-a31b-4e10-88c4-69acbef16c46"
      },
      "context": {
        "reference": "urn:uuid:3ebdbe41-5a20-4017-810a-63f1890109db"
      },
      "authored": "2021-08-03T13:07:14+00:00",
      "item": [ {
        "linkId": "Tx220109",
        "text": "What is the reason for the contact?",
        "answer": [ {
          "valueString": "an injury or other health problem"
        } ]
      } ]
    }
  }, {
    "fullUrl": "urn:uuid:527d50cf-1420-40c6-8ba5-4d1da5b4ab7d",
    "resource": {
      "resourceType": "Questionnaire",
      "id": "527d50cf-1420-40c6-8ba5-4d1da5b4ab7d",
      "identifier": [ {
        "value": "1766759"
      } ],
      "version": "2021-08-03T13:07:14.000Z",
      "status": "active",
      "experimental": false,
      "date": "2021-08-03T13:07:14+00:00",
      "publisher": "User ID: '922' User name: 'AndrewJ.Walford' User skill set: 'T4'",
      "lastReviewDate": "2021-08-03",
      "contact": [ {
        "telecom": [ {
          "system": "phone",
          "value": "07798501130"
        } ]
      } ],
      "subjectType": [ "Patient" ],
      "item": [ {
        "linkId": "1766759",
        "prefix": "5",
        "text": "What is the reason for the contact?",
        "type": "choice",
        "required": true,
        "repeats": false,
        "option": [ {
          "valueString": "an injury or other health problem, Selected: true"
        }, {
          "valueString": "a need to access another healthcare service, Selected: false"
        }, {
          "valueString": "a healthcare professional requesting contact with another clinician, Selected: false"
        }, {
          "valueString": "a report of results or tests, Selected: false"
        }, {
          "valueString": "more, Selected: false"
        } ]
      } ]
    }
  }, {
    "fullUrl": "urn:uuid:b883344b-a1da-46a0-b901-2babce05909d",
    "resource": {
      "resourceType": "QuestionnaireResponse",
      "id": "b883344b-a1da-46a0-b901-2babce05909d",
      "identifier": {
        "value": "1766759"
      },
      "questionnaire": {
        "reference": "urn:uuid:02269761-c1e8-47e7-a7f3-271a9b26d956"
      },
      "status": "completed",
      "subject": {
        "reference": "urn:uuid:6c494d1b-a31b-4e10-88c4-69acbef16c46"
      },
      "context": {
        "reference": "urn:uuid:3ebdbe41-5a20-4017-810a-63f1890109db"
      },
      "authored": "2021-08-03T13:07:14+00:00",
      "item": [ {
        "linkId": "Tx221788",
        "text": "STRING:to'ImmediateThreatsToLife(SPA/OOHversion)'-'ABC'menu",
        "answer": [ {
          "valueString": "\"\"present\"\""
        } ]
      } ]
    }
  }, {
    "fullUrl": "urn:uuid:02269761-c1e8-47e7-a7f3-271a9b26d956",
    "resource": {
      "resourceType": "Questionnaire",
      "id": "02269761-c1e8-47e7-a7f3-271a9b26d956",
      "identifier": [ {
        "value": "1766759"
      } ],
      "version": "2021-08-03T13:07:14.000Z",
      "status": "active",
      "experimental": false,
      "date": "2021-08-03T13:07:14+00:00",
      "publisher": "User ID: '922' User name: 'AndrewJ.Walford' User skill set: 'T4'",
      "lastReviewDate": "2021-08-03",
      "contact": [ {
        "telecom": [ {
          "system": "phone",
          "value": "07798501130"
        } ]
      } ],
      "subjectType": [ "Patient" ],
      "item": [ {
        "linkId": "1766759",
        "prefix": "500",
        "text": "STRING:to'ImmediateThreatsToLife(SPA/OOHversion)'-'ABC'menu",
        "type": "choice",
        "required": true,
        "repeats": false,
        "option": [ {
          "valueString": "\"\"present\"\", Selected: true"
        } ]
      } ]
    }
  }, {
    "fullUrl": "urn:uuid:ac7edf23-49bd-40ec-b60e-42e30fbfc5d0",
    "resource": {
      "resourceType": "QuestionnaireResponse",
      "id": "ac7edf23-49bd-40ec-b60e-42e30fbfc5d0",
      "identifier": {
        "value": "1766759"
      },
      "questionnaire": {
        "reference": "urn:uuid:6ab82e72-fb8e-44e5-8066-978745807ccc"
      },
      "status": "completed",
      "subject": {
        "reference": "urn:uuid:6c494d1b-a31b-4e10-88c4-69acbef16c46"
      },
      "context": {
        "reference": "urn:uuid:3ebdbe41-5a20-4017-810a-63f1890109db"
      },
      "authored": "2021-08-03T13:07:14+00:00",
      "item": [ {
        "linkId": "Tx221814",
        "text": "STRING:aninjuryorotherhealthproblemestablishedinEntryFlow",
        "answer": [ {
          "valueString": "\"\"present\"\""
        } ]
      } ]
    }
  }, {
    "fullUrl": "urn:uuid:6ab82e72-fb8e-44e5-8066-978745807ccc",
    "resource": {
      "resourceType": "Questionnaire",
      "id": "6ab82e72-fb8e-44e5-8066-978745807ccc",
      "identifier": [ {
        "value": "1766759"
      } ],
      "version": "2021-08-03T13:07:14.000Z",
      "status": "active",
      "experimental": false,
      "date": "2021-08-03T13:07:14+00:00",
      "publisher": "User ID: '922' User name: 'AndrewJ.Walford' User skill set: 'T4'",
      "lastReviewDate": "2021-08-03",
      "contact": [ {
        "telecom": [ {
          "system": "phone",
          "value": "07798501130"
        } ]
      } ],
      "subjectType": [ "Patient" ],
      "item": [ {
        "linkId": "1766759",
        "prefix": "0",
        "text": "STRING:aninjuryorotherhealthproblemestablishedinEntryFlow",
        "type": "choice",
        "required": true,
        "repeats": false,
        "option": [ {
          "valueString": "\"\"present\"\", Selected: true"
        } ]
      } ]
    }
  }, {
    "fullUrl": "urn:uuid:873f45da-b280-4cea-8716-2886d14ca93e",
    "resource": {
      "resourceType": "QuestionnaireResponse",
      "id": "873f45da-b280-4cea-8716-2886d14ca93e",
      "identifier": {
        "value": "1766759"
      },
      "questionnaire": {
        "reference": "urn:uuid:f86c11f3-11fc-4a5c-9d66-bd66fc1e9b83"
      },
      "status": "completed",
      "subject": {
        "reference": "urn:uuid:6c494d1b-a31b-4e10-88c4-69acbef16c46"
      },
      "context": {
        "reference": "urn:uuid:3ebdbe41-5a20-4017-810a-63f1890109db"
      },
      "authored": "2021-08-03T13:07:14+00:00",
      "item": [ {
        "linkId": "Tx224120",
        "text": "Have you been bleeding RED BLOOD very heavily IN THE LAST 2 HOURS?",
        "answer": [ {
          "valueString": "no"
        } ]
      } ]
    }
  }, {
    "fullUrl": "urn:uuid:f86c11f3-11fc-4a5c-9d66-bd66fc1e9b83",
    "resource": {
      "resourceType": "Questionnaire",
      "id": "f86c11f3-11fc-4a5c-9d66-bd66fc1e9b83",
      "identifier": [ {
        "value": "1766759"
      } ],
      "version": "2021-08-03T13:07:14.000Z",
      "status": "active",
      "experimental": false,
      "date": "2021-08-03T13:07:14+00:00",
      "publisher": "User ID: '922' User name: 'AndrewJ.Walford' User skill set: 'T4'",
      "lastReviewDate": "2021-08-03",
      "contact": [ {
        "telecom": [ {
          "system": "phone",
          "value": "07798501130"
        } ]
      } ],
      "subjectType": [ "Patient" ],
      "item": [ {
        "linkId": "1766759",
        "prefix": "7000",
        "text": "Have you been bleeding RED BLOOD very heavily IN THE LAST 2 HOURS?",
        "type": "choice",
        "required": true,
        "repeats": false,
        "option": [ {
          "valueString": "yes, Selected: false"
        }, {
          "valueString": "not sure, Selected: false"
        }, {
          "valueString": "no, Selected: true"
        } ]
      } ]
    }
  }, {
    "fullUrl": "urn:uuid:781e560d-0ba8-41a0-803a-d463b894025c",
    "resource": {
      "resourceType": "QuestionnaireResponse",
      "id": "781e560d-0ba8-41a0-803a-d463b894025c",
      "identifier": {
        "value": "1766759"
      },
      "questionnaire": {
        "reference": "urn:uuid:c97c8a07-e432-42ed-a4c6-32b09c06c83c"
      },
      "status": "completed",
      "subject": {
        "reference": "urn:uuid:6c494d1b-a31b-4e10-88c4-69acbef16c46"
      },
      "context": {
        "reference": "urn:uuid:3ebdbe41-5a20-4017-810a-63f1890109db"
      },
      "authored": "2021-08-03T13:07:14+00:00",
      "item": [ {
        "linkId": "Tx221343",
        "text": "SocialConcernsExcluded",
        "answer": [ {
          "valueString": "*"
        } ]
      } ]
    }
  }, {
    "fullUrl": "urn:uuid:c97c8a07-e432-42ed-a4c6-32b09c06c83c",
    "resource": {
      "resourceType": "Questionnaire",
      "id": "c97c8a07-e432-42ed-a4c6-32b09c06c83c",
      "identifier": [ {
        "value": "1766759"
      } ],
      "version": "2021-08-03T13:07:14.000Z",
      "status": "active",
      "experimental": false,
      "date": "2021-08-03T13:07:14+00:00",
      "publisher": "User ID: '922' User name: 'AndrewJ.Walford' User skill set: 'T4'",
      "lastReviewDate": "2021-08-03",
      "contact": [ {
        "telecom": [ {
          "system": "phone",
          "value": "07798501130"
        } ]
      } ],
      "subjectType": [ "Patient" ],
      "item": [ {
        "linkId": "1766759",
        "prefix": "2700",
        "text": "SocialConcernsExcluded",
        "type": "choice",
        "required": true,
        "repeats": false,
        "option": [ {
          "valueString": "==\"\"present\"\", Selected: false"
        }, {
          "valueString": "*, Selected: true"
        } ]
      } ]
    }
  }, {
    "fullUrl": "urn:uuid:6032c966-b051-4ca7-b446-ec5aa257bd0d",
    "resource": {
      "resourceType": "QuestionnaireResponse",
      "id": "6032c966-b051-4ca7-b446-ec5aa257bd0d",
      "identifier": {
        "value": "1766759"
      },
      "questionnaire": {
        "reference": "urn:uuid:a54b2506-d574-4174-b9b1-228b3e0bd5c6"
      },
      "status": "completed",
      "subject": {
        "reference": "urn:uuid:6c494d1b-a31b-4e10-88c4-69acbef16c46"
      },
      "context": {
        "reference": "urn:uuid:3ebdbe41-5a20-4017-810a-63f1890109db"
      },
      "authored": "2021-08-03T13:07:14+00:00",
      "item": [ {
        "linkId": "Tx130011",
        "text": "What is the main problem?",
        "answer": [ {
          "valueString": "illness or other health problem (specify)"
        } ]
      } ]
    }
  }, {
    "fullUrl": "urn:uuid:a54b2506-d574-4174-b9b1-228b3e0bd5c6",
    "resource": {
      "resourceType": "Questionnaire",
      "id": "a54b2506-d574-4174-b9b1-228b3e0bd5c6",
      "identifier": [ {
        "value": "1766759"
      } ],
      "version": "2021-08-03T13:07:14.000Z",
      "status": "active",
      "experimental": false,
      "date": "2021-08-03T13:07:14+00:00",
      "publisher": "User ID: '922' User name: 'AndrewJ.Walford' User skill set: 'T4'",
      "lastReviewDate": "2021-08-03",
      "contact": [ {
        "telecom": [ {
          "system": "phone",
          "value": "07798501130"
        } ]
      } ],
      "subjectType": [ "Patient" ],
      "item": [ {
        "linkId": "1766759",
        "prefix": "3400",
        "text": "What is the main problem?",
        "type": "choice",
        "required": true,
        "repeats": false,
        "option": [ {
          "valueString": "the individual has been told to follow a particular course of action (specify), Selected: false"
        }, {
          "valueString": "the individual is an identified frequent caller, Selected: false"
        }, {
          "valueString": "injury (specify), Selected: false"
        }, {
          "valueString": "illness or other health problem (specify), Selected: true"
        }, {
          "valueString": "child protection/vulnerable adult concern, Selected: false"
        }, {
          "valueString": "social or domestic emergency, Selected: false"
        }, {
          "valueString": "the environment potentially poses an immediate threat to life (specify), Selected: false"
        } ]
      } ]
    }
  }, {
    "fullUrl": "urn:uuid:d2320806-384f-4dc5-8901-f60812c60505",
    "resource": {
      "resourceType": "QuestionnaireResponse",
      "id": "d2320806-384f-4dc5-8901-f60812c60505",
      "identifier": {
        "value": "1766759"
      },
      "questionnaire": {
        "reference": "urn:uuid:ddabefd0-10d1-4426-8003-2e89cfcbfd9e"
      },
      "status": "completed",
      "subject": {
        "reference": "urn:uuid:6c494d1b-a31b-4e10-88c4-69acbef16c46"
      },
      "context": {
        "reference": "urn:uuid:3ebdbe41-5a20-4017-810a-63f1890109db"
      },
      "authored": "2021-08-03T13:07:14+00:00",
      "item": [ {
        "linkId": "Tx61025",
        "text": "Are you so breathless that speaking more than a few words is impossible?",
        "answer": [ {
          "valueString": "no"
        } ]
      } ]
    }
  }, {
    "fullUrl": "urn:uuid:ddabefd0-10d1-4426-8003-2e89cfcbfd9e",
    "resource": {
      "resourceType": "Questionnaire",
      "id": "ddabefd0-10d1-4426-8003-2e89cfcbfd9e",
      "identifier": [ {
        "value": "1766759"
      } ],
      "version": "2021-08-03T13:07:14.000Z",
      "status": "active",
      "experimental": false,
      "date": "2021-08-03T13:07:14+00:00",
      "publisher": "User ID: '922' User name: 'AndrewJ.Walford' User skill set: 'T4'",
      "lastReviewDate": "2021-08-03",
      "contact": [ {
        "telecom": [ {
          "system": "phone",
          "value": "07798501130"
        } ]
      } ],
      "subjectType": [ "Patient" ],
      "item": [ {
        "linkId": "1766759",
        "prefix": "0",
        "text": "Are you so breathless that speaking more than a few words is impossible?",
        "type": "choice",
        "required": true,
        "repeats": false,
        "option": [ {
          "valueString": "yes, Selected: false"
        }, {
          "valueString": "not sure, Selected: false"
        }, {
          "valueString": "no, Selected: true"
        } ]
      } ]
    }
  }, {
    "fullUrl": "urn:uuid:6c679100-1ef5-4885-b8ff-b9ac3eb433ac",
    "resource": {
      "resourceType": "QuestionnaireResponse",
      "id": "6c679100-1ef5-4885-b8ff-b9ac3eb433ac",
      "identifier": {
        "value": "1766759"
      },
      "questionnaire": {
        "reference": "urn:uuid:2ec12cb3-8f4b-4324-88e3-4e4558100c8e"
      },
      "status": "completed",
      "subject": {
        "reference": "urn:uuid:6c494d1b-a31b-4e10-88c4-69acbef16c46"
      },
      "context": {
        "reference": "urn:uuid:3ebdbe41-5a20-4017-810a-63f1890109db"
      },
      "authored": "2021-08-03T13:07:14+00:00",
      "item": [ {
        "linkId": "Tx220845",
        "text": "SYSTEM_FLUPANDEMIC",
        "answer": [ {
          "valueString": "*"
        } ]
      } ]
    }
  }, {
    "fullUrl": "urn:uuid:2ec12cb3-8f4b-4324-88e3-4e4558100c8e",
    "resource": {
      "resourceType": "Questionnaire",
      "id": "2ec12cb3-8f4b-4324-88e3-4e4558100c8e",
      "identifier": [ {
        "value": "1766759"
      } ],
      "version": "2021-08-03T13:07:14.000Z",
      "status": "active",
      "experimental": false,
      "date": "2021-08-03T13:07:14+00:00",
      "publisher": "User ID: '922' User name: 'AndrewJ.Walford' User skill set: 'T4'",
      "lastReviewDate": "2021-08-03",
      "contact": [ {
        "telecom": [ {
          "system": "phone",
          "value": "07798501130"
        } ]
      } ],
      "subjectType": [ "Patient" ],
      "item": [ {
        "linkId": "1766759",
        "prefix": "100",
        "text": "SYSTEM_FLUPANDEMIC",
        "type": "choice",
        "required": true,
        "repeats": false,
        "option": [ {
          "valueString": "==\"\"pandemic\"\", Selected: false"
        }, {
          "valueString": "*, Selected: true"
        } ]
      } ]
    }
  }, {
    "fullUrl": "urn:uuid:debb1291-f6c2-4644-b199-07d880eb7813",
    "resource": {
      "resourceType": "QuestionnaireResponse",
      "id": "debb1291-f6c2-4644-b199-07d880eb7813",
      "identifier": {
        "value": "1766759"
      },
      "questionnaire": {
        "reference": "urn:uuid:220e3de9-f27d-4e9a-8924-9b1d747aaea2"
      },
      "status": "completed",
      "subject": {
        "reference": "urn:uuid:6c494d1b-a31b-4e10-88c4-69acbef16c46"
      },
      "context": {
        "reference": "urn:uuid:3ebdbe41-5a20-4017-810a-63f1890109db"
      },
      "authored": "2021-08-03T13:07:14+00:00",
      "item": [ {
        "linkId": "Tx223440",
        "text": "WHAT IS SAID TO BE THE MAIN REASON FOR THIS CONTACT?",
        "answer": [ {
          "valueString": "more"
        } ]
      } ]
    }
  }, {
    "fullUrl": "urn:uuid:220e3de9-f27d-4e9a-8924-9b1d747aaea2",
    "resource": {
      "resourceType": "Questionnaire",
      "id": "220e3de9-f27d-4e9a-8924-9b1d747aaea2",
      "identifier": [ {
        "value": "1766759"
      } ],
      "version": "2021-08-03T13:07:14.000Z",
      "status": "active",
      "experimental": false,
      "date": "2021-08-03T13:07:14+00:00",
      "publisher": "User ID: '922' User name: 'AndrewJ.Walford' User skill set: 'T4'",
      "lastReviewDate": "2021-08-03",
      "contact": [ {
        "telecom": [ {
          "system": "phone",
          "value": "07798501130"
        } ]
      } ],
      "subjectType": [ "Patient" ],
      "item": [ {
        "linkId": "1766759",
        "prefix": "5000",
        "text": "WHAT IS SAID TO BE THE MAIN REASON FOR THIS CONTACT?",
        "type": "choice",
        "required": true,
        "repeats": false,
        "option": [ {
          "valueString": "a probable allergic reaction now, Selected: false"
        }, {
          "valueString": "a probable heart attack, Selected: false"
        }, {
          "valueString": "chest or upper back pain, Selected: false"
        }, {
          "valueString": "a probable stroke or mini-stroke, Selected: false"
        }, {
          "valueString": "a probable fit or seizure within the last 12 hours, Selected: false"
        }, {
          "valueString": "a suicide attempt, Selected: false"
        }, {
          "valueString": "more, Selected: true"
        } ]
      } ]
    }
  }, {
    "fullUrl": "urn:uuid:ba6ab5ce-0270-49d7-afa1-0e4e7bb98e33",
    "resource": {
      "resourceType": "QuestionnaireResponse",
      "id": "ba6ab5ce-0270-49d7-afa1-0e4e7bb98e33",
      "identifier": {
        "value": "1766759"
      },
      "questionnaire": {
        "reference": "urn:uuid:12e00fc1-34fe-4517-ae9f-7814ebc17a37"
      },
      "status": "completed",
      "subject": {
        "reference": "urn:uuid:6c494d1b-a31b-4e10-88c4-69acbef16c46"
      },
      "context": {
        "reference": "urn:uuid:3ebdbe41-5a20-4017-810a-63f1890109db"
      },
      "authored": "2021-08-03T13:07:14+00:00",
      "item": [ {
        "linkId": "Tx220032",
        "text": "WHAT IS SAID TO BE THE MAIN REASON FOR THIS CONTACT?",
        "answer": [ {
          "valueString": "none of the above"
        } ]
      } ]
    }
  }, {
    "fullUrl": "urn:uuid:12e00fc1-34fe-4517-ae9f-7814ebc17a37",
    "resource": {
      "resourceType": "Questionnaire",
      "id": "12e00fc1-34fe-4517-ae9f-7814ebc17a37",
      "identifier": [ {
        "value": "1766759"
      } ],
      "version": "2021-08-03T13:07:14.000Z",
      "status": "active",
      "experimental": false,
      "date": "2021-08-03T13:07:14+00:00",
      "publisher": "User ID: '922' User name: 'AndrewJ.Walford' User skill set: 'T4'",
      "lastReviewDate": "2021-08-03",
      "contact": [ {
        "telecom": [ {
          "system": "phone",
          "value": "07798501130"
        } ]
      } ],
      "subjectType": [ "Patient" ],
      "item": [ {
        "linkId": "1766759",
        "prefix": "1900",
        "text": "WHAT IS SAID TO BE THE MAIN REASON FOR THIS CONTACT?",
        "type": "choice",
        "required": true,
        "repeats": false,
        "option": [ {
          "valueString": "new confusion now, Selected: false"
        }, {
          "valueString": "a diabetic hypo (low blood sugar) or a diabetic hyper (high blood sugar), Selected: false"
        }, {
          "valueString": "recovery from an ICD (implanted cardioverter defibrillator) shock, Selected: false"
        }, {
          "valueString": "none of the above, Selected: true"
        } ]
      } ]
    }
  }, {
    "fullUrl": "urn:uuid:14587182-d711-4745-b48e-bd4494ce09d7",
    "resource": {
      "resourceType": "QuestionnaireResponse",
      "id": "14587182-d711-4745-b48e-bd4494ce09d7",
      "identifier": {
        "value": "1766759"
      },
      "questionnaire": {
        "reference": "urn:uuid:15212571-1c9d-4aca-b50c-d08bc539f971"
      },
      "status": "completed",
      "subject": {
        "reference": "urn:uuid:6c494d1b-a31b-4e10-88c4-69acbef16c46"
      },
      "context": {
        "reference": "urn:uuid:3ebdbe41-5a20-4017-810a-63f1890109db"
      },
      "authored": "2021-08-03T13:07:14+00:00",
      "item": [ {
        "linkId": "Tx223142",
        "text": "Does the skin on the chest, back or abdomen feel a normal temperature?",
        "answer": [ {
          "valueString": "yes - normal, warm or hot"
        } ]
      } ]
    }
  }, {
    "fullUrl": "urn:uuid:15212571-1c9d-4aca-b50c-d08bc539f971",
    "resource": {
      "resourceType": "Questionnaire",
      "id": "15212571-1c9d-4aca-b50c-d08bc539f971",
      "identifier": [ {
        "value": "1766759"
      } ],
      "version": "2021-08-03T13:07:14.000Z",
      "status": "active",
      "experimental": false,
      "date": "2021-08-03T13:07:14+00:00",
      "publisher": "User ID: '922' User name: 'AndrewJ.Walford' User skill set: 'T4'",
      "lastReviewDate": "2021-08-03",
      "contact": [ {
        "telecom": [ {
          "system": "phone",
          "value": "07798501130"
        } ]
      } ],
      "subjectType": [ "Patient" ],
      "item": [ {
        "linkId": "1766759",
        "prefix": "4000",
        "text": "Does the skin on the chest, back or abdomen feel a normal temperature?",
        "type": "choice",
        "required": true,
        "repeats": false,
        "option": [ {
          "valueString": "yes - normal, warm or hot, Selected: true"
        }, {
          "valueString": "not sure, Selected: false"
        }, {
          "valueString": "no - cool OR cold, Selected: false"
        }, {
          "valueString": "not safe to touch, Selected: false"
        } ]
      } ]
    }
  }, {
    "fullUrl": "urn:uuid:514f3b40-a04f-45ba-ad3c-4a04400e0e6f",
    "resource": {
      "resourceType": "QuestionnaireResponse",
      "id": "514f3b40-a04f-45ba-ad3c-4a04400e0e6f",
      "identifier": {
        "value": "1766759"
      },
      "questionnaire": {
        "reference": "urn:uuid:f7ecfb15-e45b-409f-944c-3ea799e6c7af"
      },
      "status": "completed",
      "subject": {
        "reference": "urn:uuid:6c494d1b-a31b-4e10-88c4-69acbef16c46"
      },
      "context": {
        "reference": "urn:uuid:3ebdbe41-5a20-4017-810a-63f1890109db"
      },
      "authored": "2021-08-03T13:07:14+00:00",
      "item": [ {
        "linkId": "Tx221724",
        "text": "STRING:ShockAsked",
        "answer": [ {
          "valueString": "\"\"present\"\""
        } ]
      } ]
    }
  }, {
    "fullUrl": "urn:uuid:f7ecfb15-e45b-409f-944c-3ea799e6c7af",
    "resource": {
      "resourceType": "Questionnaire",
      "id": "f7ecfb15-e45b-409f-944c-3ea799e6c7af",
      "identifier": [ {
        "value": "1766759"
      } ],
      "version": "2021-08-03T13:07:14.000Z",
      "status": "active",
      "experimental": false,
      "date": "2021-08-03T13:07:14+00:00",
      "publisher": "User ID: '922' User name: 'AndrewJ.Walford' User skill set: 'T4'",
      "lastReviewDate": "2021-08-03",
      "contact": [ {
        "telecom": [ {
          "system": "phone",
          "value": "07798501130"
        } ]
      } ],
      "subjectType": [ "Patient" ],
      "item": [ {
        "linkId": "1766759",
        "prefix": "3300",
        "text": "STRING:ShockAsked",
        "type": "choice",
        "required": true,
        "repeats": false,
        "option": [ {
          "valueString": "\"\"present\"\", Selected: true"
        } ]
      } ]
    }
  }, {
    "fullUrl": "urn:uuid:f8193ad8-13e1-49bf-ac4b-5a8d1c187de6",
    "resource": {
      "resourceType": "QuestionnaireResponse",
      "id": "f8193ad8-13e1-49bf-ac4b-5a8d1c187de6",
      "identifier": {
        "value": "1766759"
      },
      "questionnaire": {
        "reference": "urn:uuid:f42e0c02-6114-42bd-a09c-b9fa79910133"
      },
      "status": "completed",
      "subject": {
        "reference": "urn:uuid:6c494d1b-a31b-4e10-88c4-69acbef16c46"
      },
      "context": {
        "reference": "urn:uuid:3ebdbe41-5a20-4017-810a-63f1890109db"
      },
      "authored": "2021-08-03T13:07:14+00:00"
    }
  }, {
    "fullUrl": "urn:uuid:f42e0c02-6114-42bd-a09c-b9fa79910133",
    "resource": {
      "resourceType": "Questionnaire",
      "id": "f42e0c02-6114-42bd-a09c-b9fa79910133",
      "identifier": [ {
        "value": "1766759"
      } ],
      "version": "2021-08-03T13:07:14.000Z",
      "status": "active",
      "experimental": false,
      "date": "2021-08-03T13:07:14+00:00",
      "publisher": "User ID: '922' User name: 'AndrewJ.Walford' User skill set: 'T4'",
      "lastReviewDate": "2021-08-03",
      "contact": [ {
        "telecom": [ {
          "system": "phone",
          "value": "07798501130"
        } ]
      } ],
      "subjectType": [ "Patient" ]
    }
  }, {
    "fullUrl": "urn:uuid:94df2760-ef88-4a41-961e-8591bdba7373",
    "resource": {
      "resourceType": "QuestionnaireResponse",
      "id": "94df2760-ef88-4a41-961e-8591bdba7373",
      "identifier": {
        "value": "1766759"
      },
      "questionnaire": {
        "reference": "urn:uuid:c7797061-15df-43fd-8106-564bb4745f9d"
      },
      "status": "completed",
      "subject": {
        "reference": "urn:uuid:6c494d1b-a31b-4e10-88c4-69acbef16c46"
      },
      "context": {
        "reference": "urn:uuid:3ebdbe41-5a20-4017-810a-63f1890109db"
      },
      "authored": "2021-08-03T13:07:14+00:00",
      "item": [ {
        "linkId": "Tx222984",
        "text": "WHAT IS THE MAIN PROBLEM?",
        "answer": [ {
          "valueString": "more"
        } ]
      } ]
    }
  }, {
    "fullUrl": "urn:uuid:c7797061-15df-43fd-8106-564bb4745f9d",
    "resource": {
      "resourceType": "Questionnaire",
      "id": "c7797061-15df-43fd-8106-564bb4745f9d",
      "identifier": [ {
        "value": "1766759"
      } ],
      "version": "2021-08-03T13:07:14.000Z",
      "status": "active",
      "experimental": false,
      "date": "2021-08-03T13:07:14+00:00",
      "publisher": "User ID: '922' User name: 'AndrewJ.Walford' User skill set: 'T4'",
      "lastReviewDate": "2021-08-03",
      "contact": [ {
        "telecom": [ {
          "system": "phone",
          "value": "07798501130"
        } ]
      } ],
      "subjectType": [ "Patient" ],
      "item": [ {
        "linkId": "1766759",
        "prefix": "0",
        "text": "WHAT IS THE MAIN PROBLEM?",
        "type": "choice",
        "required": true,
        "repeats": false,
        "option": [ {
          "valueString": "a rash, Selected: false"
        }, {
          "valueString": "itch, Selected: false"
        }, {
          "valueString": "yellow skin, Selected: false"
        }, {
          "valueString": "skin lumps, Selected: false"
        }, {
          "valueString": "easy or unexplained bruising, Selected: false"
        }, {
          "valueString": "more, Selected: true"
        } ]
      } ]
    }
  }, {
    "fullUrl": "urn:uuid:7cafd6dd-087f-4667-bc24-6f9c52716759",
    "resource": {
      "resourceType": "QuestionnaireResponse",
      "id": "7cafd6dd-087f-4667-bc24-6f9c52716759",
      "identifier": {
        "value": "1766759"
      },
      "questionnaire": {
        "reference": "urn:uuid:c3c52f8e-580f-4073-a198-509d050cdefd"
      },
      "status": "completed",
      "subject": {
        "reference": "urn:uuid:6c494d1b-a31b-4e10-88c4-69acbef16c46"
      },
      "context": {
        "reference": "urn:uuid:3ebdbe41-5a20-4017-810a-63f1890109db"
      },
      "authored": "2021-08-03T13:07:14+00:00",
      "item": [ {
        "linkId": "Tx222985",
        "text": "WHAT IS THE MAIN PROBLEM?",
        "answer": [ {
          "valueString": "declared head lice"
        } ]
      } ]
    }
  }, {
    "fullUrl": "urn:uuid:c3c52f8e-580f-4073-a198-509d050cdefd",
    "resource": {
      "resourceType": "Questionnaire",
      "id": "c3c52f8e-580f-4073-a198-509d050cdefd",
      "identifier": [ {
        "value": "1766759"
      } ],
      "version": "2021-08-03T13:07:14.000Z",
      "status": "active",
      "experimental": false,
      "date": "2021-08-03T13:07:14+00:00",
      "publisher": "User ID: '922' User name: 'AndrewJ.Walford' User skill set: 'T4'",
      "lastReviewDate": "2021-08-03",
      "contact": [ {
        "telecom": [ {
          "system": "phone",
          "value": "07798501130"
        } ]
      } ],
      "subjectType": [ "Patient" ],
      "item": [ {
        "linkId": "1766759",
        "prefix": "700",
        "text": "WHAT IS THE MAIN PROBLEM?",
        "type": "choice",
        "required": true,
        "repeats": false,
        "option": [ {
          "valueString": "declared head lice, Selected: true"
        }, {
          "valueString": "declared pubic lice, Selected: false"
        }, {
          "valueString": "declared scabies, Selected: false"
        }, {
          "valueString": "declared athlete's foot, Selected: false"
        }, {
          "valueString": "acne, spots or pimples, Selected: false"
        }, {
          "valueString": "more, Selected: false"
        } ]
      } ]
    }
  }, {
    "fullUrl": "urn:uuid:f687faec-3618-4427-b87c-b42850b40adc",
    "resource": {
      "resourceType": "QuestionnaireResponse",
      "id": "f687faec-3618-4427-b87c-b42850b40adc",
      "identifier": {
        "value": "1766759"
      },
      "questionnaire": {
        "reference": "urn:uuid:78ecf9da-b51c-4c04-960a-284fc484c2b2"
      },
      "status": "completed",
      "subject": {
        "reference": "urn:uuid:6c494d1b-a31b-4e10-88c4-69acbef16c46"
      },
      "context": {
        "reference": "urn:uuid:3ebdbe41-5a20-4017-810a-63f1890109db"
      },
      "authored": "2021-08-03T13:07:14+00:00",
      "item": [ {
        "linkId": "Tx220667",
        "text": "Have you been in contact with somebody with head lice or nits?",
        "answer": [ {
          "valueString": "yes"
        } ]
      } ]
    }
  }, {
    "fullUrl": "urn:uuid:78ecf9da-b51c-4c04-960a-284fc484c2b2",
    "resource": {
      "resourceType": "Questionnaire",
      "id": "78ecf9da-b51c-4c04-960a-284fc484c2b2",
      "identifier": [ {
        "value": "1766759"
      } ],
      "version": "2021-08-03T13:07:14.000Z",
      "status": "active",
      "experimental": false,
      "date": "2021-08-03T13:07:14+00:00",
      "publisher": "User ID: '922' User name: 'AndrewJ.Walford' User skill set: 'T4'",
      "lastReviewDate": "2021-08-03",
      "contact": [ {
        "telecom": [ {
          "system": "phone",
          "value": "07798501130"
        } ]
      } ],
      "subjectType": [ "Patient" ],
      "item": [ {
        "linkId": "1766759",
        "prefix": "0",
        "text": "Have you been in contact with somebody with head lice or nits?",
        "type": "choice",
        "required": true,
        "repeats": false,
        "option": [ {
          "valueString": "yes, Selected: true"
        }, {
          "valueString": "not sure, Selected: false"
        }, {
          "valueString": "no, Selected: false"
        } ]
      } ]
    }
  }, {
    "fullUrl": "urn:uuid:7126acaf-1826-4584-b4ec-75171627162c",
    "resource": {
      "resourceType": "QuestionnaireResponse",
      "id": "7126acaf-1826-4584-b4ec-75171627162c",
      "identifier": {
        "value": "1766759"
      },
      "questionnaire": {
        "reference": "urn:uuid:27cd8b59-978b-4fef-8199-02712c194176"
      },
      "status": "completed",
      "subject": {
        "reference": "urn:uuid:6c494d1b-a31b-4e10-88c4-69acbef16c46"
      },
      "context": {
        "reference": "urn:uuid:3ebdbe41-5a20-4017-810a-63f1890109db"
      },
      "authored": "2021-08-03T13:07:14+00:00",
      "item": [ {
        "linkId": "Tx220664",
        "text": "Have you lost patches or clumps of hair OVER THE LAST FEW WEEKS?",
        "answer": [ {
          "valueString": "yes"
        } ]
      } ]
    }
  }, {
    "fullUrl": "urn:uuid:27cd8b59-978b-4fef-8199-02712c194176",
    "resource": {
      "resourceType": "Questionnaire",
      "id": "27cd8b59-978b-4fef-8199-02712c194176",
      "identifier": [ {
        "value": "1766759"
      } ],
      "version": "2021-08-03T13:07:14.000Z",
      "status": "active",
      "experimental": false,
      "date": "2021-08-03T13:07:14+00:00",
      "publisher": "User ID: '922' User name: 'AndrewJ.Walford' User skill set: 'T4'",
      "lastReviewDate": "2021-08-03",
      "contact": [ {
        "telecom": [ {
          "system": "phone",
          "value": "07798501130"
        } ]
      } ],
      "subjectType": [ "Patient" ],
      "item": [ {
        "linkId": "1766759",
        "prefix": "300",
        "text": "Have you lost patches or clumps of hair OVER THE LAST FEW WEEKS?",
        "type": "choice",
        "required": true,
        "repeats": false,
        "option": [ {
          "valueString": "yes, Selected: true"
        }, {
          "valueString": "not sure, Selected: false"
        }, {
          "valueString": "no, Selected: false"
        } ]
      } ]
    }
  }, {
    "fullUrl": "urn:uuid:a4ede45f-facd-460a-b109-58f6e19d54d6",
    "resource": {
      "resourceType": "QuestionnaireResponse",
      "id": "a4ede45f-facd-460a-b109-58f6e19d54d6",
      "identifier": {
        "value": "1766759"
      },
      "questionnaire": {
        "reference": "urn:uuid:93ea620f-a8cd-449a-8a4b-fd8e4b27e41f"
      },
      "status": "completed",
      "subject": {
        "reference": "urn:uuid:6c494d1b-a31b-4e10-88c4-69acbef16c46"
      },
      "context": {
        "reference": "urn:uuid:3ebdbe41-5a20-4017-810a-63f1890109db"
      },
      "authored": "2021-08-03T13:07:14+00:00",
      "item": [ {
        "linkId": "Tx221449",
        "text": "STRING:SDPCFullPrimaryCareassessmentandprescribingcapability",
        "answer": [ {
          "valueString": "\"\"PC full Primary Care assessment and prescribing capability\"\""
        } ]
      } ]
    }
  }, {
    "fullUrl": "urn:uuid:93ea620f-a8cd-449a-8a4b-fd8e4b27e41f",
    "resource": {
      "resourceType": "Questionnaire",
      "id": "93ea620f-a8cd-449a-8a4b-fd8e4b27e41f",
      "identifier": [ {
        "value": "1766759"
      } ],
      "version": "2021-08-03T13:07:14.000Z",
      "status": "active",
      "experimental": false,
      "date": "2021-08-03T13:07:14+00:00",
      "publisher": "User ID: '922' User name: 'AndrewJ.Walford' User skill set: 'T4'",
      "lastReviewDate": "2021-08-03",
      "contact": [ {
        "telecom": [ {
          "system": "phone",
          "value": "07798501130"
        } ]
      } ],
      "subjectType": [ "Patient" ],
      "item": [ {
        "linkId": "1766759",
        "prefix": "500",
        "text": "STRING:SDPCFullPrimaryCareassessmentandprescribingcapability",
        "type": "choice",
        "required": true,
        "repeats": false,
        "option": [ {
          "valueString": "\"\"PC full Primary Care assessment and prescribing capability\"\", Selected: true"
        } ]
      } ]
    }
  }, {
    "fullUrl": "urn:uuid:8ddab887-9182-4726-9b7e-5a183061da24",
    "resource": {
      "resourceType": "QuestionnaireResponse",
      "id": "8ddab887-9182-4726-9b7e-5a183061da24",
      "identifier": {
        "value": "1766759"
      },
      "questionnaire": {
        "reference": "urn:uuid:607a888c-e5b4-4a35-8c54-a74856a3b877"
      },
      "status": "completed",
      "subject": {
        "reference": "urn:uuid:6c494d1b-a31b-4e10-88c4-69acbef16c46"
      },
      "context": {
        "reference": "urn:uuid:3ebdbe41-5a20-4017-810a-63f1890109db"
      },
      "authored": "2021-08-03T13:07:14+00:00"
    }
  }, {
    "fullUrl": "urn:uuid:607a888c-e5b4-4a35-8c54-a74856a3b877",
    "resource": {
      "resourceType": "Questionnaire",
      "id": "607a888c-e5b4-4a35-8c54-a74856a3b877",
      "identifier": [ {
        "value": "1766759"
      } ],
      "version": "2021-08-03T13:07:14.000Z",
      "status": "active",
      "experimental": false,
      "date": "2021-08-03T13:07:14+00:00",
      "publisher": "User ID: '922' User name: 'AndrewJ.Walford' User skill set: 'T4'",
      "lastReviewDate": "2021-08-03",
      "contact": [ {
        "telecom": [ {
          "system": "phone",
          "value": "07798501130"
        } ]
      } ],
      "subjectType": [ "Patient" ]
    }
  }, {
    "fullUrl": "urn:uuid:5bf5ae5e-2a60-4768-a2e0-88a492f94884",
    "resource": {
      "resourceType": "QuestionnaireResponse",
      "id": "5bf5ae5e-2a60-4768-a2e0-88a492f94884",
      "identifier": {
        "value": "1766759"
      },
      "questionnaire": {
        "reference": "urn:uuid:5e387e74-7c3a-42d8-b411-f826655611d8"
      },
      "status": "completed",
      "subject": {
        "reference": "urn:uuid:6c494d1b-a31b-4e10-88c4-69acbef16c46"
      },
      "context": {
        "reference": "urn:uuid:3ebdbe41-5a20-4017-810a-63f1890109db"
      },
      "authored": "2021-08-03T13:07:14+00:00",
      "item": [ {
        "linkId": "N/A"
      } ]
    }
  }, {
    "fullUrl": "urn:uuid:5e387e74-7c3a-42d8-b411-f826655611d8",
    "resource": {
      "resourceType": "Questionnaire",
      "id": "5e387e74-7c3a-42d8-b411-f826655611d8",
      "identifier": [ {
        "value": "1766759"
      } ],
      "version": "2021-08-03T13:07:14.000Z",
      "status": "active",
      "experimental": false,
      "date": "2021-08-03T13:07:14+00:00",
      "publisher": "User ID: '922' User name: 'AndrewJ.Walford' User skill set: 'T4'",
      "lastReviewDate": "2021-08-03",
      "contact": [ {
        "telecom": [ {
          "system": "phone",
          "value": "07798501130"
        } ]
      } ],
      "subjectType": [ "Patient" ],
      "item": [ {
        "linkId": "1766759",
        "type": "choice",
        "required": true,
        "repeats": false,
        "option": [ {
          "valueString": ", Selected: false"
        } ]
      } ]
    }
  }, {
    "fullUrl": "urn:uuid:91801369-5d96-453f-9f1f-465fa7ed5b44",
    "resource": {
      "resourceType": "QuestionnaireResponse",
      "id": "91801369-5d96-453f-9f1f-465fa7ed5b44",
      "identifier": {
        "value": "1766759"
      },
      "questionnaire": {
        "reference": "urn:uuid:6d8dd027-be7b-4961-a666-ae80fecb74a6"
      },
      "status": "completed",
      "subject": {
        "reference": "urn:uuid:6c494d1b-a31b-4e10-88c4-69acbef16c46"
      },
      "context": {
        "reference": "urn:uuid:3ebdbe41-5a20-4017-810a-63f1890109db"
      },
      "authored": "2021-08-03T13:07:14+00:00"
    }
  }, {
    "fullUrl": "urn:uuid:6d8dd027-be7b-4961-a666-ae80fecb74a6",
    "resource": {
      "resourceType": "Questionnaire",
      "id": "6d8dd027-be7b-4961-a666-ae80fecb74a6",
      "identifier": [ {
        "value": "1766759"
      } ],
      "version": "2021-08-03T13:07:14.000Z",
      "status": "active",
      "experimental": false,
      "date": "2021-08-03T13:07:14+00:00",
      "publisher": "User ID: '922' User name: 'AndrewJ.Walford' User skill set: 'T4'",
      "lastReviewDate": "2021-08-03",
      "contact": [ {
        "telecom": [ {
          "system": "phone",
          "value": "07798501130"
        } ]
      } ],
      "subjectType": [ "Patient" ]
    }
  }, {
    "fullUrl": "urn:uuid:23a13c6f-3fdc-4ac2-87ee-9d318d4bcdcf",
    "resource": {
      "resourceType": "Observation",
      "id": "23a13c6f-3fdc-4ac2-87ee-9d318d4bcdcf",
      "status": "final",
      "code": {
        "coding": [ {
          "system": "http://snomed.info/sct",
          "code": "33962009",
          "display": "Presenting complaint"
        } ]
      },
      "subject": {
        "reference": "urn:uuid:6c494d1b-a31b-4e10-88c4-69acbef16c46"
      },
      "context": {
        "reference": "urn:uuid:3ebdbe41-5a20-4017-810a-63f1890109db"
      }
    }
  }, {
    "fullUrl": "urn:uuid:6cfa9ae6-772a-4a2d-8520-765dcf7bf5b5",
    "resource": {
      "resourceType": "PractitionerRole",
      "id": "6cfa9ae6-772a-4a2d-8520-765dcf7bf5b5",
      "practitioner": {
        "reference": "urn:uuid:5d6b1112-67b0-4599-9f1f-e4ab6e39529a"
      },
      "organization": {
        "reference": "urn:uuid:d5ab28cc-8ce5-4003-9fa2-1f24f8adb7cd"
      },
      "code": [ {
        "coding": [ {
          "system": "2.16.840.1.113883.2.1.3.2.4.17.339",
          "code": "NP",
          "display": "Nurse Practitioner"
        } ]
      } ]
    }
  }, {
    "fullUrl": "urn:uuid:d5ab28cc-8ce5-4003-9fa2-1f24f8adb7cd",
    "resource": {
      "resourceType": "Organization",
      "id": "d5ab28cc-8ce5-4003-9fa2-1f24f8adb7cd",
      "identifier": [ {
        "value": "RX7"
      } ],
      "name": "NWAS 111"
    }
  }, {
    "fullUrl": "urn:uuid:110bb0db-268a-41e8-9ee0-1e04507e4eda",
    "resource": {
      "resourceType": "RelatedPerson",
      "id": "110bb0db-268a-41e8-9ee0-1e04507e4eda",
      "patient": {
        "reference": "urn:uuid:6c494d1b-a31b-4e10-88c4-69acbef16c46"
      },
      "relationship": {
        "coding": [ {
          "system": "http://hl7.org/fhir/v2/0131",
          "code": "C",
          "display": "Emergency Contact"
        } ]
      },
      "telecom": [ {
        "system": "phone",
        "value": "tel:07798501130"
      } ]
    }
  }, {
    "fullUrl": "urn:uuid:f1d2da99-aa2a-4117-9f86-9f1bebb17022",
    "resource": {
      "resourceType": "Device",
      "id": "f1d2da99-aa2a-4117-9f86-9f1bebb17022",
      "model": "111 Adaptor",
      "version": "1.0.0"
    }
  }, {
    "fullUrl": "urn:uuid:1a3f8d91-89ac-4723-922e-ac49b3a464ca",
    "resource": {
      "resourceType": "List",
      "id": "1a3f8d91-89ac-4723-922e-ac49b3a464ca",
      "status": "current",
      "mode": "working",
      "title": "111 Report List",
      "code": {
        "coding": [ {
          "system": "http://snomed.info/sct",
          "code": "225390008",
          "display": "Triage"
        } ]
      },
      "subject": {
        "reference": "urn:uuid:6c494d1b-a31b-4e10-88c4-69acbef16c46"
      },
      "encounter": {
        "reference": "urn:uuid:3ebdbe41-5a20-4017-810a-63f1890109db"
      },
      "date": "2021-10-11T06:41:47+00:00",
      "source": {
        "reference": "urn:uuid:f1d2da99-aa2a-4117-9f86-9f1bebb17022"
      },
      "orderedBy": {
        "coding": [ {
          "system": "http://hl7.org/fhir/list-order",
          "code": "event-date",
          "display": "Sorted by Event Date"
        } ]
      },
      "entry": [ {
        "item": {
          "reference": "urn:uuid:f8222e84-0a8d-4620-a05b-d2195593dc90"
        }
      }, {
        "item": {
          "reference": "urn:uuid:23a13c6f-3fdc-4ac2-87ee-9d318d4bcdcf"
        }
      }, {
        "item": {
          "reference": "urn:uuid:983df471-5d42-4bca-82e4-44a4d9bb8323"
        }
      }, {
        "item": {
          "reference": "urn:uuid:110bb0db-268a-41e8-9ee0-1e04507e4eda"
        }
      }, {
        "item": {
          "reference": "urn:uuid:d5ab28cc-8ce5-4003-9fa2-1f24f8adb7cd"
        }
      }, {
        "item": {
          "reference": "urn:uuid:11d5d72c-5f94-4d89-9db8-b17611ed1a7b"
        }
      }, {
        "item": {
          "reference": "urn:uuid:5d6b1112-67b0-4599-9f1f-e4ab6e39529a"
        }
      }, {
        "item": {
          "reference": "urn:uuid:d4ff126e-6dfc-453c-8afa-47d76c078af9"
        }
      }, {
        "item": {
          "reference": "urn:uuid:3c65faed-cca0-437a-9e0b-74bc66a65703"
        }
      }, {
        "item": {
          "reference": "urn:uuid:d10b7f4a-2bc8-4b84-9d6f-e7c9ddbc4380"
        }
      }, {
        "item": {
          "reference": "urn:uuid:d2320806-384f-4dc5-8901-f60812c60505"
        }
      }, {
        "item": {
          "reference": "urn:uuid:91801369-5d96-453f-9f1f-465fa7ed5b44"
        }
      }, {
        "item": {
          "reference": "urn:uuid:5e387e74-7c3a-42d8-b411-f826655611d8"
        }
      }, {
        "item": {
          "reference": "urn:uuid:ba6ab5ce-0270-49d7-afa1-0e4e7bb98e33"
        }
      }, {
        "item": {
          "reference": "urn:uuid:debb1291-f6c2-4644-b199-07d880eb7813"
        }
      }, {
        "item": {
          "reference": "urn:uuid:27cd8b59-978b-4fef-8199-02712c194176"
        }
      }, {
        "item": {
          "reference": "urn:uuid:a54b2506-d574-4174-b9b1-228b3e0bd5c6"
        }
      }, {
        "item": {
          "reference": "urn:uuid:93ea620f-a8cd-449a-8a4b-fd8e4b27e41f"
        }
      }, {
        "item": {
          "reference": "urn:uuid:b883344b-a1da-46a0-b901-2babce05909d"
        }
      }, {
        "item": {
          "reference": "urn:uuid:6c679100-1ef5-4885-b8ff-b9ac3eb433ac"
        }
      }, {
        "item": {
          "reference": "urn:uuid:15212571-1c9d-4aca-b50c-d08bc539f971"
        }
      }, {
        "item": {
          "reference": "urn:uuid:7126acaf-1826-4584-b4ec-75171627162c"
        }
      }, {
        "item": {
          "reference": "urn:uuid:ac7edf23-49bd-40ec-b60e-42e30fbfc5d0"
        }
      }, {
        "item": {
          "reference": "urn:uuid:8ddab887-9182-4726-9b7e-5a183061da24"
        }
      }, {
        "item": {
          "reference": "urn:uuid:527d50cf-1420-40c6-8ba5-4d1da5b4ab7d"
        }
      }, {
        "item": {
          "reference": "urn:uuid:a4ede45f-facd-460a-b109-58f6e19d54d6"
        }
      }, {
        "item": {
          "reference": "urn:uuid:f687faec-3618-4427-b87c-b42850b40adc"
        }
      }, {
        "item": {
          "reference": "urn:uuid:02269761-c1e8-47e7-a7f3-271a9b26d956"
        }
      }, {
        "item": {
          "reference": "urn:uuid:f8193ad8-13e1-49bf-ac4b-5a8d1c187de6"
        }
      }, {
        "item": {
          "reference": "urn:uuid:6ab82e72-fb8e-44e5-8066-978745807ccc"
        }
      }, {
        "item": {
          "reference": "urn:uuid:ddabefd0-10d1-4426-8003-2e89cfcbfd9e"
        }
      }, {
        "item": {
          "reference": "urn:uuid:873f45da-b280-4cea-8716-2886d14ca93e"
        }
      }, {
        "item": {
          "reference": "urn:uuid:c3c52f8e-580f-4073-a198-509d050cdefd"
        }
      }, {
        "item": {
          "reference": "urn:uuid:6d8dd027-be7b-4961-a666-ae80fecb74a6"
        }
      }, {
        "item": {
          "reference": "urn:uuid:c7797061-15df-43fd-8106-564bb4745f9d"
        }
      }, {
        "item": {
          "reference": "urn:uuid:7cafd6dd-087f-4667-bc24-6f9c52716759"
        }
      }, {
        "item": {
          "reference": "urn:uuid:78ecf9da-b51c-4c04-960a-284fc484c2b2"
        }
      }, {
        "item": {
          "reference": "urn:uuid:14587182-d711-4745-b48e-bd4494ce09d7"
        }
      }, {
        "item": {
          "reference": "urn:uuid:c97c8a07-e432-42ed-a4c6-32b09c06c83c"
        }
      }, {
        "item": {
          "reference": "urn:uuid:607a888c-e5b4-4a35-8c54-a74856a3b877"
        }
      }, {
        "item": {
          "reference": "urn:uuid:220e3de9-f27d-4e9a-8924-9b1d747aaea2"
        }
      }, {
        "item": {
          "reference": "urn:uuid:514f3b40-a04f-45ba-ad3c-4a04400e0e6f"
        }
      }, {
        "item": {
          "reference": "urn:uuid:12e00fc1-34fe-4517-ae9f-7814ebc17a37"
        }
      }, {
        "item": {
          "reference": "urn:uuid:f42e0c02-6114-42bd-a09c-b9fa79910133"
        }
      }, {
        "item": {
          "reference": "urn:uuid:2ec12cb3-8f4b-4324-88e3-4e4558100c8e"
        }
      }, {
        "item": {
          "reference": "urn:uuid:5bf5ae5e-2a60-4768-a2e0-88a492f94884"
        }
      }, {
        "item": {
          "reference": "urn:uuid:781e560d-0ba8-41a0-803a-d463b894025c"
        }
      }, {
        "item": {
          "reference": "urn:uuid:96192cbc-60c2-4bd3-9307-87f73b141ab4"
        }
      }, {
        "item": {
          "reference": "urn:uuid:f86c11f3-11fc-4a5c-9d66-bd66fc1e9b83"
        }
      }, {
        "item": {
          "reference": "urn:uuid:f7ecfb15-e45b-409f-944c-3ea799e6c7af"
        }
      }, {
        "item": {
          "reference": "urn:uuid:94df2760-ef88-4a41-961e-8591bdba7373"
        }
      }, {
        "item": {
          "reference": "urn:uuid:6032c966-b051-4ca7-b446-ec5aa257bd0d"
        }
      }, {
        "item": {
          "reference": "urn:uuid:012dfbd5-ee3d-4c77-b1df-1511f0605d11"
        }
      } ]
    }
  } ]
}