{
  "resourceType": "Bundle",
  "identifier": {
    "type": {
      "text": "ClinicalDocument VersionNumber"
    },
    "value": "1"
  },
  "type": "message",
  "entry": [ {
    "fullUrl": "urn:uuid:B447241A-CEBD-41DF-AC62-46FE8022876F",
    "resource": {
      "resourceType": "MessageHeader",
      "id": "B447241A-CEBD-41DF-AC62-46FE8022876F",
      "event": {
        "system": "https://fhir.nhs.uk/STU3/CodeSystem/EventType-1",
        "code": "referral-1",
        "display": "Referral"
      },
      "destination": [ {
        "endpoint": "urn:nhs-uk:addressing:ods:Y02837001:DOSServiceID:1340268940"
      } ],
      "timestamp": "2021-08-03T13:04:53.000+00:00",
      "source": {
        "name": "NHS 111 Adaptor",
        "endpoint": "http://localhost:8080/report"
      },
      "reason": {
        "coding": [ {
          "system": "urn:nhs-itk:ns:201005:interaction",
          "code": "urn:nhs-itk:interaction:primaryOutofHourRecipientNHS111CDADocument-v2-0"
        } ]
      }
    }
  }, {
    "fullUrl": "urn:uuid:2fec8d32-c87d-42c5-a897-169ab05b5609",
    "resource": {
      "resourceType": "Encounter",
      "id": "2fec8d32-c87d-42c5-a897-169ab05b5609",
      "identifier": [ {
        "system": "2.16.840.1.113883.2.1.3.2.4.18.49",
        "value": "0163118D-0756-4A98-8F34-458721C6481F"
      }, {
        "system": "2.16.840.1.113883.2.1.3.2.4.18.34",
        "value": "1766749"
      }, {
        "system": "2.16.840.1.113883.2.1.3.2.4.18.35",
        "value": "1766749"
      } ],
      "status": "finished",
      "type": [ {
        "text": "111 Encounter Referral"
      } ],
      "subject": {
        "reference": "urn:uuid:b9c0ef29-cb5b-4176-90ba-c50412b72ebb"
      },
      "participant": [ {
        "type": [ {
          "coding": [ {
            "system": "http://hl7.org/fhir/ValueSet/encounter-participant-type",
            "code": "PPRF",
            "display": "Author"
          } ]
        } ],
        "individual": {
          "reference": "urn:uuid:c2bc21b9-d1ca-43ae-a6b3-07a2020a4148"
        }
      } ],
      "period": {
        "start": "2021-08-03T13:04:53+00:00"
      },
      "location": [ {
        "location": {
          "reference": "urn:uuid:16746815-dfeb-4988-bf8a-52978296ea1a"
        },
        "status": "completed"
      } ],
      "serviceProvider": {
        "reference": "urn:uuid:3b4e5b1c-b9e7-49de-be46-a3dca468d99f"
      }
    }
  }, {
    "fullUrl": "urn:uuid:3b4e5b1c-b9e7-49de-be46-a3dca468d99f",
    "resource": {
      "resourceType": "Organization",
      "id": "3b4e5b1c-b9e7-49de-be46-a3dca468d99f",
      "active": true,
      "type": [ {
        "text": "CST"
      } ],
      "name": "NWAS 111"
    }
  }, {
    "fullUrl": "urn:uuid:c2bc21b9-d1ca-43ae-a6b3-07a2020a4148",
    "resource": {
      "resourceType": "Practitioner",
      "id": "c2bc21b9-d1ca-43ae-a6b3-07a2020a4148",
      "active": true,
      "name": [ {
        "text": "AndrewJ.Walford"
      } ]
    }
  }, {
    "fullUrl": "urn:uuid:16746815-dfeb-4988-bf8a-52978296ea1a",
    "resource": {
      "resourceType": "Location",
      "id": "16746815-dfeb-4988-bf8a-52978296ea1a",
      "address": {
        "type": "physical",
        "line": [ "Fleetwood Health & Wellbeing Centre", "Dock Street", "Fleetwood" ],
        "postalCode": "FY7 6HP"
      }
    }
  }, {
    "fullUrl": "urn:uuid:b9c0ef29-cb5b-4176-90ba-c50412b72ebb",
    "resource": {
      "resourceType": "Patient",
      "id": "b9c0ef29-cb5b-4176-90ba-c50412b72ebb",
      "active": true,
      "name": [ {
        "use": "official",
        "family": "Please Disregard",
        "given": [ "Dx10 Test" ]
      } ],
      "telecom": [ {
        "system": "phone",
        "value": "tel:07798501130",
        "use": "mobile"
      }, {
        "system": "phone",
        "value": "tel:07798501130"
      } ],
      "gender": "male",
      "birthDate": "1980-01-01",
      "address": [ {
        "use": "home",
        "line": [ "Fleetwood Health & Wellbeing Centre", "Dock Street", "Fleetwood" ],
        "postalCode": "FY7 6HP"
      }, {
        "type": "physical",
        "line": [ "Fleetwood Health & Wellbeing Centre", "Dock Street", "Fleetwood" ],
        "postalCode": "FY7 6HP"
      } ]
    }
  }, {
    "fullUrl": "urn:uuid:9a9d41f5-d047-4622-b6d6-48b4c90d0e97",
    "resource": {
      "resourceType": "HealthcareService",
      "id": "9a9d41f5-d047-4622-b6d6-48b4c90d0e97",
      "active": true,
      "providedBy": {
        "reference": "urn:uuid:49970466-9321-4f9a-bef4-e034e49c3f97"
      },
      "location": [ {
        "reference": "urn:uuid:a7d10315-5236-447f-acdf-7237260edf0c"
      } ],
      "name": "Urgent Treatment Centre - Minor Injury Unit Same Day Health Cent",
      "telecom": [ {
        "system": "phone",
        "value": "tel:03001231144NP:01253955551",
        "use": "work"
      } ]
    }
  }, {
    "fullUrl": "urn:uuid:a7d10315-5236-447f-acdf-7237260edf0c",
    "resource": {
      "resourceType": "Location",
      "id": "a7d10315-5236-447f-acdf-7237260edf0c",
      "telecom": [ {
        "system": "phone",
        "value": "tel:03001231144NP:01253955551",
        "use": "work"
      } ],
      "address": {
        "use": "work",
        "line": [ "x", "x", "x" ],
        "postalCode": "FY7 6HP"
      },
      "managingOrganization": {
        "reference": "urn:uuid:49970466-9321-4f9a-bef4-e034e49c3f97"
      }
    }
  }, {
    "fullUrl": "urn:uuid:49970466-9321-4f9a-bef4-e034e49c3f97",
    "resource": {
      "resourceType": "Organization",
      "id": "49970466-9321-4f9a-bef4-e034e49c3f97",
      "identifier": [ {
        "value": "Y02837001"
      } ],
      "type": [ {
        "coding": [ {
          "code": "PRCP",
          "display": "Urgent Treatment Centre - Minor Injury Unit Same Day Health Cent"
        } ]
      } ],
      "name": "Urgent Treatment Centre - Minor Injury Unit Same Day Health Cent"
    }
  }, {
    "fullUrl": "urn:uuid:9c0326dc-66a2-49c2-8ed0-01cda99bf21f",
    "resource": {
      "resourceType": "ReferralRequest",
      "id": "9c0326dc-66a2-49c2-8ed0-01cda99bf21f",
      "status": "active",
      "intent": "plan",
      "priority": "routine",
      "subject": {
        "reference": "urn:uuid:b9c0ef29-cb5b-4176-90ba-c50412b72ebb"
      },
      "context": {
        "reference": "urn:uuid:2fec8d32-c87d-42c5-a897-169ab05b5609"
      },
      "occurrencePeriod": {
        "start": "2021-10-11T06:41:48+00:00",
        "end": "2021-10-11T07:41:48+00:00"
      },
      "authoredOn": "2021-08-03T12:35:22+00:00",
      "requester": {
        "agent": {
          "reference": "urn:uuid:61228991-4879-4694-ab1d-f2010704cdf4"
        },
        "onBehalfOf": {
          "reference": "urn:uuid:3b4e5b1c-b9e7-49de-be46-a3dca468d99f"
        }
      },
      "recipient": [ {
        "reference": "urn:uuid:bf5bb550-ea46-4f43-a093-9179b7010f24"
      }, {
        "reference": "urn:uuid:9a9d41f5-d047-4622-b6d6-48b4c90d0e97"
      } ],
      "reasonReference": [ {
        "reference": "urn:uuid:eff8f06b-3ba6-4436-ac89-b17c7ae4c5fd"
      } ],
      "supportingInfo": [ {
        "reference": "urn:uuid:a26fbca0-0752-4a89-84cc-1eb50054a690"
      } ]
    }
  }, {
    "fullUrl": "urn:uuid:a26fbca0-0752-4a89-84cc-1eb50054a690",
    "resource": {
      "resourceType": "ProcedureRequest",
      "id": "a26fbca0-0752-4a89-84cc-1eb50054a690",
      "status": "active",
      "intent": "plan",
      "priority": "routine",
      "doNotPerform": false,
      "code": {
        "coding": [ {
          "system": "2.16.840.1.113883.2.1.3.2.4.17.325",
          "code": "Dx10",
          "display": "Must Contact A Local Service For A Non-urgent Appointment"
        } ]
      },
      "subject": {
        "reference": "urn:uuid:b9c0ef29-cb5b-4176-90ba-c50412b72ebb"
      },
      "occurrencePeriod": {
        "start": "2021-10-11T06:41:48+00:00",
        "end": "2021-10-11T07:41:48+00:00"
      },
      "reasonReference": [ {
        "reference": "urn:uuid:eff8f06b-3ba6-4436-ac89-b17c7ae4c5fd"
      } ]
    }
  }, {
    "fullUrl": "urn:uuid:bf5bb550-ea46-4f43-a093-9179b7010f24",
    "resource": {
      "resourceType": "Practitioner",
      "id": "bf5bb550-ea46-4f43-a093-9179b7010f24",
      "active": true,
      "telecom": [ {
        "system": "phone",
        "value": "tel:03001231144NP:01253955551",
        "use": "work"
      } ],
      "address": [ {
        "type": "physical",
        "line": [ "x", "x", "x" ],
        "postalCode": "FY7 6HP"
      } ]
    }
  }, {
    "fullUrl": "urn:uuid:a6188e15-8290-4f70-b111-29073905d899",
    "resource": {
      "resourceType": "Composition",
      "id": "a6188e15-8290-4f70-b111-29073905d899",
      "identifier": {
        "use": "usual",
        "value": "DEF337D1-08BF-4631-B11E-28F64349A031"
      },
      "status": "final",
      "type": {
        "coding": [ {
          "system": "http://snomed.info/sct",
          "code": "371531000",
          "display": "Report of clinical encounter (record artifact)"
        } ]
      },
      "subject": {
        "reference": "urn:uuid:b9c0ef29-cb5b-4176-90ba-c50412b72ebb"
      },
      "encounter": {
        "reference": "urn:uuid:2fec8d32-c87d-42c5-a897-169ab05b5609"
      },
      "date": "2021-10-11T06:41:48+00:00",
      "author": [ {
        "reference": "urn:uuid:c2bc21b9-d1ca-43ae-a6b3-07a2020a4148"
      } ],
      "title": "111 Report",
      "confidentiality": "N",
      "section": [ {
        "section": [ {
          "title": "Patient's Reported Condition",
          "text": {
            "status": "generated",
            "div": "<div xmlns=\"http://www.w3.org/1999/xhtml\">**test From Nwas111 - No Action Required - Please Disregard Test</div>"
          }
        }, {
          "title": "Case Summary",
          "text": {
            "status": "generated",
            "div": "<div xmlns=\"http://www.w3.org/1999/xhtml\">&lt;content styleCode=&quot;bold&quot;&gt;Pathways Disposition: Dx10&lt;/content&gt;\n                                                    &lt;br/&gt;\n                                                    &lt;content&gt;Must Contact A Local Service For A Non-urgent Appointment User comment - '**Test From NWAS111 - No Action required - Please Disregard Test case**'&lt;/content&gt;\n                                                    &lt;br/&gt;\n                                                    &lt;br/&gt;\n                                                    &lt;content styleCode=&quot;bold&quot;&gt;Consultation Summary:&lt;/content&gt;\n                                                    &lt;br/&gt;\n                                                    &lt;content&gt;Illness - '**Test From NWAS111 - No Action required - Please Disregard Test case**'&lt;/content&gt;\n                                                    &lt;br/&gt;\n                                                    &lt;content&gt;Warm to touch&lt;/content&gt;\n                                                    &lt;br/&gt;\n                                                    &lt;br/&gt;\n                                                    &lt;content styleCode=&quot;bold&quot;&gt;Pathways Assessment:&lt;/content&gt;\n                                                    &lt;br/&gt;\n                                                    &lt;content&gt;An injury or health problem was the reason for the contact.&lt;/content&gt;\n                                                    &lt;br/&gt;\n                                                    &lt;content&gt;User comment - '**Test From NWAS111 - No Action required - Please Disregard Test case**'&lt;/content&gt;\n                                                    &lt;br/&gt;\n                                                    &lt;content&gt;Heavy bleeding had not occurred in the previous 2 hours.&lt;/content&gt;\n                                                    &lt;br/&gt;\n                                                    &lt;content&gt;An illness or health problem was the main problem.&lt;/content&gt;\n                                                    &lt;br/&gt;\n                                                    &lt;content&gt;User comment - '**Test From NWAS111 - No Action required - Please Disregard Test case**'&lt;/content&gt;\n                                                    &lt;br/&gt;\n                                                    &lt;content&gt;The individual was not fighting for breath.&lt;/content&gt;\n                                                    &lt;br/&gt;\n                                                    &lt;content&gt;The main reason for the assessment was not an allergic reaction, heart attack, chest/upper back pain, probable stroke, recent fit/seizure or suicide attempt.&lt;/content&gt;\n                                                    &lt;br/&gt;\n                                                    &lt;content&gt;The main reason for contact was not new confusion, declared diabetic hypo/hyperglycaemia, or ICD shock.&lt;/content&gt;\n                                                    &lt;br/&gt;\n                                                    &lt;content&gt;The skin on the torso felt normal, warm or hot.&lt;/content&gt;\n                                                    &lt;br/&gt;\n                                                    &lt;content&gt;Pathway selected - Difficulty Passing Urine&lt;/content&gt;\n                                                    &lt;br/&gt;\n                                                    &lt;content&gt;The individual was able to carry out most or all normal activities.&lt;/content&gt;\n                                                    &lt;br/&gt;\n                                                    &lt;content&gt;There was no new loss of bowel control or leg movement and no saddle or lower limb paraesthesia.&lt;/content&gt;\n                                                    &lt;br/&gt;\n                                                    &lt;content&gt;There was no inability to pass urine over the last 12 hours.&lt;/content&gt;\n                                                    &lt;br/&gt;\n                                                    &lt;content&gt;There was no new or worsening confusion.&lt;/content&gt;\n                                                    &lt;br/&gt;\n                                                    &lt;content&gt;Breathing harder or faster when doing nothing was not described.&lt;/content&gt;\n                                                    &lt;br/&gt;\n                                                    &lt;content&gt;There was no spinal pain.&lt;/content&gt;\n                                                    &lt;br/&gt;\n                                                    &lt;content&gt;The pain was not getting worse.&lt;/content&gt;\n                                                    &lt;br/&gt;\n                                                    &lt;content&gt;There was no fever at the time of assessment or within the previous 12 hours.&lt;/content&gt;\n                                                    &lt;br/&gt;\n                                                    &lt;content&gt;The individual had not experienced a back injury within the previous 4 weeks.&lt;/content&gt;\n                                                    &lt;br/&gt;\n                                                    &lt;content&gt;Medication type or dosage had not changed within the previous 2 weeks.&lt;/content&gt;\n                                                    &lt;br/&gt;\n                                                    &lt;content&gt;User comment - 'Urgent Treatment Centre - Same Day Health Centre - Fleetwood'&lt;/content&gt;\n                                                    &lt;br/&gt;\n                                                    &lt;br/&gt;\n                                                    &lt;content styleCode=&quot;bold&quot;&gt;Advice Given:&lt;/content&gt;\n                                                    &lt;br/&gt;\n                                                    &lt;content&gt;Unless advised not to, paracetamol may be used to relieve pain or fever. Follow the instructions in the pack. If in doubt ask a pharmacist.&lt;/content&gt;\n                                                    &lt;br/&gt;\n                                                    &lt;br/&gt;</div>"
          }
        } ]
      }, {
        "title": "ReferralRequest",
        "entry": [ {
          "reference": "urn:uuid:9c0326dc-66a2-49c2-8ed0-01cda99bf21f"
        } ]
      }, {
        "title": "QuestionnaireResponse",
        "entry": [ {
          "reference": "urn:uuid:6792a5d6-d838-4896-ab9f-fb189d00df45"
        } ]
      }, {
        "title": "QuestionnaireResponse",
        "entry": [ {
          "reference": "urn:uuid:4162bea8-e5ca-4054-bf81-e31aca659aee"
        } ]
      }, {
        "title": "QuestionnaireResponse",
        "entry": [ {
          "reference": "urn:uuid:7e5447a8-daf0-472e-8c8d-14372f089fcd"
        } ]
      }, {
        "title": "QuestionnaireResponse",
        "entry": [ {
          "reference": "urn:uuid:09cbf49b-c364-45ed-a87b-d07a001c1ac7"
        } ]
      }, {
        "title": "QuestionnaireResponse",
        "entry": [ {
          "reference": "urn:uuid:c23afc04-e288-420d-aff6-a51f9cf2a241"
        } ]
      }, {
        "title": "QuestionnaireResponse",
        "entry": [ {
          "reference": "urn:uuid:138e526e-6521-4d47-9e00-0483c5ffb1d5"
        } ]
      }, {
        "title": "QuestionnaireResponse",
        "entry": [ {
          "reference": "urn:uuid:84fd3a71-fe57-4fa9-9326-8dfd481d0adf"
        } ]
      }, {
        "title": "QuestionnaireResponse",
        "entry": [ {
          "reference": "urn:uuid:602a6c6f-0da0-4d8b-8c62-ed6e9d3875b1"
        } ]
      }, {
        "title": "QuestionnaireResponse",
        "entry": [ {
          "reference": "urn:uuid:2296d974-e25c-466a-bf8e-1c8215aee95f"
        } ]
      }, {
        "title": "QuestionnaireResponse",
        "entry": [ {
          "reference": "urn:uuid:de080ee6-00cb-4a5c-8acd-f2bf41e1d3be"
        } ]
      }, {
        "title": "QuestionnaireResponse",
        "entry": [ {
          "reference": "urn:uuid:ab42070f-55bf-4b53-80f8-f1fd65a5a8c4"
        } ]
      }, {
        "title": "QuestionnaireResponse",
        "entry": [ {
          "reference": "urn:uuid:c9491399-2a0d-464a-8ffc-b0d1221f0042"
        } ]
      }, {
        "title": "QuestionnaireResponse",
        "entry": [ {
          "reference": "urn:uuid:20506b14-579a-446a-a8dd-2b1ca6041e43"
        } ]
      }, {
        "title": "QuestionnaireResponse",
        "entry": [ {
          "reference": "urn:uuid:3cdcf598-fdef-415a-bf2f-fa817b398d21"
        } ]
      }, {
        "title": "QuestionnaireResponse",
        "entry": [ {
          "reference": "urn:uuid:8502742e-33ae-4f00-9fc1-94963b3ffc2a"
        } ]
      }, {
        "title": "QuestionnaireResponse",
        "entry": [ {
          "reference": "urn:uuid:0b39cbe2-27f9-4afa-9e31-c00828fe119e"
        } ]
      }, {
        "title": "QuestionnaireResponse",
        "entry": [ {
          "reference": "urn:uuid:9a83d8b6-7207-4c73-8b0c-c5ab60888f70"
        } ]
      }, {
        "title": "QuestionnaireResponse",
        "entry": [ {
          "reference": "urn:uuid:3fe074b2-c0f6-4f76-865a-271df3b284dc"
        } ]
      }, {
        "title": "QuestionnaireResponse",
        "entry": [ {
          "reference": "urn:uuid:1eff7f0e-c0a2-44af-8792-5a94dd7348ea"
        } ]
      }, {
        "title": "QuestionnaireResponse",
        "entry": [ {
          "reference": "urn:uuid:3bd8eaed-f184-4ad6-a1ca-779fab51f7cb"
        } ]
      }, {
        "title": "QuestionnaireResponse",
        "entry": [ {
          "reference": "urn:uuid:3f7c0060-92e6-465b-a48f-9e0e230a6e99"
        } ]
      }, {
        "title": "QuestionnaireResponse",
        "entry": [ {
          "reference": "urn:uuid:611e55b2-5c7f-4b07-bf6f-aa2c9e67ffcf"
        } ]
      }, {
        "title": "QuestionnaireResponse",
        "entry": [ {
          "reference": "urn:uuid:0b5901bd-be89-4002-b0df-bcf982e39fda"
        } ]
      }, {
        "title": "QuestionnaireResponse",
        "entry": [ {
          "reference": "urn:uuid:bfe91a9d-b6bc-47dc-8862-7d68403b05c9"
        } ]
      }, {
        "title": "QuestionnaireResponse",
        "entry": [ {
          "reference": "urn:uuid:b2e653f3-ac5c-47fe-9dfd-c70b98bab97c"
        } ]
      }, {
        "title": "QuestionnaireResponse",
        "entry": [ {
          "reference": "urn:uuid:acbfbd51-ce54-4d8e-b2ea-865433fce0b7"
        } ]
      }, {
        "title": "QuestionnaireResponse",
        "entry": [ {
          "reference": "urn:uuid:df84232d-838d-4f4c-937b-3aefd13e5113"
        } ]
      }, {
        "title": "QuestionnaireResponse",
        "entry": [ {
          "reference": "urn:uuid:808f260c-efd1-4fd0-80e6-f9736d614af3"
        } ]
      }, {
        "title": "QuestionnaireResponse",
        "entry": [ {
          "reference": "urn:uuid:f44aff2e-389a-401f-aaed-97b382f34c75"
        } ]
      }, {
        "title": "QuestionnaireResponse",
        "entry": [ {
          "reference": "urn:uuid:2aa22fe0-0f09-44ea-8e0b-8e86b99c4e1c"
        } ]
      }, {
        "title": "QuestionnaireResponse",
        "entry": [ {
          "reference": "urn:uuid:65eb50d9-ffb1-4298-9337-d8e3a582407c"
        } ]
      }, {
        "title": "QuestionnaireResponse",
        "entry": [ {
          "reference": "urn:uuid:9f91543c-fb6b-449b-9dc4-716a16a5d098"
        } ]
      } ]
    }
  }, {
    "fullUrl": "urn:uuid:89e0fdb8-d602-4c59-bd72-2399c0cf63e3",
    "resource": {
      "resourceType": "Consent",
      "id": "89e0fdb8-d602-4c59-bd72-2399c0cf63e3",
      "identifier": {
        "use": "usual",
        "value": "DEF337D1-08BF-4631-B11E-28F64349A031"
      },
      "status": "active",
      "patient": {
        "reference": "urn:uuid:b9c0ef29-cb5b-4176-90ba-c50412b72ebb"
      },
      "period": {
        "start": "2021-08-03T13:04:53+00:00"
      },
      "consentingParty": [ {
        "reference": "urn:uuid:b9c0ef29-cb5b-4176-90ba-c50412b72ebb"
      } ],
      "action": [ {
        "coding": [ {
          "system": "http://snomed.info/sct",
          "code": "425691002",
          "display": "Consent given for electronic record sharing"
        } ],
        "text": "Consent given for electronic record sharing"
      } ],
      "organization": [ {
        "reference": "urn:uuid:3b4e5b1c-b9e7-49de-be46-a3dca468d99f"
      } ],
      "policyRule": "http://hl7.org/fhir/ConsentPolicy/opt-out",
      "data": [ {
        "meaning": "related",
        "reference": {
          "reference": "urn:uuid:2fec8d32-c87d-42c5-a897-169ab05b5609"
        }
      } ]
    }
  }, {
    "fullUrl": "urn:uuid:eff8f06b-3ba6-4436-ac89-b17c7ae4c5fd",
    "resource": {
      "resourceType": "Condition",
      "id": "eff8f06b-3ba6-4436-ac89-b17c7ae4c5fd",
      "clinicalStatus": "active",
      "verificationStatus": "unknown",
      "subject": {
        "reference": "urn:uuid:b9c0ef29-cb5b-4176-90ba-c50412b72ebb"
      },
      "context": {
        "reference": "urn:uuid:2fec8d32-c87d-42c5-a897-169ab05b5609"
      },
      "evidence": [ {
        "detail": [ {
          "reference": "urn:uuid:6792a5d6-d838-4896-ab9f-fb189d00df45"
        } ]
      }, {
        "detail": [ {
          "reference": "urn:uuid:4162bea8-e5ca-4054-bf81-e31aca659aee"
        } ]
      }, {
        "detail": [ {
          "reference": "urn:uuid:7e5447a8-daf0-472e-8c8d-14372f089fcd"
        } ]
      }, {
        "detail": [ {
          "reference": "urn:uuid:09cbf49b-c364-45ed-a87b-d07a001c1ac7"
        } ]
      }, {
        "detail": [ {
          "reference": "urn:uuid:c23afc04-e288-420d-aff6-a51f9cf2a241"
        } ]
      }, {
        "detail": [ {
          "reference": "urn:uuid:138e526e-6521-4d47-9e00-0483c5ffb1d5"
        } ]
      }, {
        "detail": [ {
          "reference": "urn:uuid:84fd3a71-fe57-4fa9-9326-8dfd481d0adf"
        } ]
      }, {
        "detail": [ {
          "reference": "urn:uuid:602a6c6f-0da0-4d8b-8c62-ed6e9d3875b1"
        } ]
      }, {
        "detail": [ {
          "reference": "urn:uuid:2296d974-e25c-466a-bf8e-1c8215aee95f"
        } ]
      }, {
        "detail": [ {
          "reference": "urn:uuid:de080ee6-00cb-4a5c-8acd-f2bf41e1d3be"
        } ]
      }, {
        "detail": [ {
          "reference": "urn:uuid:ab42070f-55bf-4b53-80f8-f1fd65a5a8c4"
        } ]
      }, {
        "detail": [ {
          "reference": "urn:uuid:c9491399-2a0d-464a-8ffc-b0d1221f0042"
        } ]
      }, {
        "detail": [ {
          "reference": "urn:uuid:20506b14-579a-446a-a8dd-2b1ca6041e43"
        } ]
      }, {
        "detail": [ {
          "reference": "urn:uuid:3cdcf598-fdef-415a-bf2f-fa817b398d21"
        } ]
      }, {
        "detail": [ {
          "reference": "urn:uuid:8502742e-33ae-4f00-9fc1-94963b3ffc2a"
        } ]
      }, {
        "detail": [ {
          "reference": "urn:uuid:0b39cbe2-27f9-4afa-9e31-c00828fe119e"
        } ]
      }, {
        "detail": [ {
          "reference": "urn:uuid:9a83d8b6-7207-4c73-8b0c-c5ab60888f70"
        } ]
      }, {
        "detail": [ {
          "reference": "urn:uuid:3fe074b2-c0f6-4f76-865a-271df3b284dc"
        } ]
      }, {
        "detail": [ {
          "reference": "urn:uuid:1eff7f0e-c0a2-44af-8792-5a94dd7348ea"
        } ]
      }, {
        "detail": [ {
          "reference": "urn:uuid:3bd8eaed-f184-4ad6-a1ca-779fab51f7cb"
        } ]
      }, {
        "detail": [ {
          "reference": "urn:uuid:3f7c0060-92e6-465b-a48f-9e0e230a6e99"
        } ]
      }, {
        "detail": [ {
          "reference": "urn:uuid:611e55b2-5c7f-4b07-bf6f-aa2c9e67ffcf"
        } ]
      }, {
        "detail": [ {
          "reference": "urn:uuid:0b5901bd-be89-4002-b0df-bcf982e39fda"
        } ]
      }, {
        "detail": [ {
          "reference": "urn:uuid:bfe91a9d-b6bc-47dc-8862-7d68403b05c9"
        } ]
      }, {
        "detail": [ {
          "reference": "urn:uuid:b2e653f3-ac5c-47fe-9dfd-c70b98bab97c"
        } ]
      }, {
        "detail": [ {
          "reference": "urn:uuid:acbfbd51-ce54-4d8e-b2ea-865433fce0b7"
        } ]
      }, {
        "detail": [ {
          "reference": "urn:uuid:df84232d-838d-4f4c-937b-3aefd13e5113"
        } ]
      }, {
        "detail": [ {
          "reference": "urn:uuid:808f260c-efd1-4fd0-80e6-f9736d614af3"
        } ]
      }, {
        "detail": [ {
          "reference": "urn:uuid:f44aff2e-389a-401f-aaed-97b382f34c75"
        } ]
      }, {
        "detail": [ {
          "reference": "urn:uuid:2aa22fe0-0f09-44ea-8e0b-8e86b99c4e1c"
        } ]
      }, {
        "detail": [ {
          "reference": "urn:uuid:65eb50d9-ffb1-4298-9337-d8e3a582407c"
        } ]
      }, {
        "detail": [ {
          "reference": "urn:uuid:9f91543c-fb6b-449b-9dc4-716a16a5d098"
        } ]
      } ]
    }
  }, {
    "fullUrl": "urn:uuid:6792a5d6-d838-4896-ab9f-fb189d00df45",
    "resource": {
      "resourceType": "QuestionnaireResponse",
      "id": "6792a5d6-d838-4896-ab9f-fb189d00df45",
      "identifier": {
        "value": "1766749"
      },
      "questionnaire": {
        "reference": "urn:uuid:aca57425-9a5f-4645-bfab-f5768c08dbf7"
      },
      "status": "completed",
      "subject": {
        "reference": "urn:uuid:b9c0ef29-cb5b-4176-90ba-c50412b72ebb"
      },
      "context": {
        "reference": "urn:uuid:2fec8d32-c87d-42c5-a897-169ab05b5609"
      },
      "authored": "2021-08-03T13:04:53+00:00",
      "item": [ {
        "linkId": "Tx220109",
        "text": "What is the reason for the contact?",
        "answer": [ {
          "valueString": "an injury or other health problem"
        } ]
      } ]
    }
  }, {
    "fullUrl": "urn:uuid:aca57425-9a5f-4645-bfab-f5768c08dbf7",
    "resource": {
      "resourceType": "Questionnaire",
      "id": "aca57425-9a5f-4645-bfab-f5768c08dbf7",
      "identifier": [ {
        "value": "1766749"
      } ],
      "version": "2021-08-03T13:04:53.000Z",
      "status": "active",
      "experimental": false,
      "date": "2021-08-03T13:04:53+00:00",
      "publisher": "User ID: '922' User name: 'AndrewJ.Walford' User skill set: 'T4'",
      "lastReviewDate": "2021-08-03",
      "contact": [ {
        "telecom": [ {
          "system": "phone",
          "value": "07798501130"
        } ]
      } ],
      "subjectType": [ "Patient" ],
      "item": [ {
        "linkId": "1766749",
        "prefix": "5",
        "text": "What is the reason for the contact?",
        "type": "choice",
        "required": true,
        "repeats": false,
        "option": [ {
          "valueString": "an injury or other health problem, Selected: true"
        }, {
          "valueString": "a need to access another healthcare service, Selected: false"
        }, {
          "valueString": "a healthcare professional requesting contact with another clinician, Selected: false"
        }, {
          "valueString": "a report of results or tests, Selected: false"
        }, {
          "valueString": "more, Selected: false"
        } ]
      } ]
    }
  }, {
    "fullUrl": "urn:uuid:4162bea8-e5ca-4054-bf81-e31aca659aee",
    "resource": {
      "resourceType": "QuestionnaireResponse",
      "id": "4162bea8-e5ca-4054-bf81-e31aca659aee",
      "identifier": {
        "value": "1766749"
      },
      "questionnaire": {
        "reference": "urn:uuid:73127809-ddac-4bdb-9232-7be59e3d189c"
      },
      "status": "completed",
      "subject": {
        "reference": "urn:uuid:b9c0ef29-cb5b-4176-90ba-c50412b72ebb"
      },
      "context": {
        "reference": "urn:uuid:2fec8d32-c87d-42c5-a897-169ab05b5609"
      },
      "authored": "2021-08-03T13:04:53+00:00",
      "item": [ {
        "linkId": "Tx221788",
        "text": "STRING:to'ImmediateThreatsToLife(SPA/OOHversion)'-'ABC'menu",
        "answer": [ {
          "valueString": "\"\"present\"\""
        } ]
      } ]
    }
  }, {
    "fullUrl": "urn:uuid:73127809-ddac-4bdb-9232-7be59e3d189c",
    "resource": {
      "resourceType": "Questionnaire",
      "id": "73127809-ddac-4bdb-9232-7be59e3d189c",
      "identifier": [ {
        "value": "1766749"
      } ],
      "version": "2021-08-03T13:04:53.000Z",
      "status": "active",
      "experimental": false,
      "date": "2021-08-03T13:04:53+00:00",
      "publisher": "User ID: '922' User name: 'AndrewJ.Walford' User skill set: 'T4'",
      "lastReviewDate": "2021-08-03",
      "contact": [ {
        "telecom": [ {
          "system": "phone",
          "value": "07798501130"
        } ]
      } ],
      "subjectType": [ "Patient" ],
      "item": [ {
        "linkId": "1766749",
        "prefix": "500",
        "text": "STRING:to'ImmediateThreatsToLife(SPA/OOHversion)'-'ABC'menu",
        "type": "choice",
        "required": true,
        "repeats": false,
        "option": [ {
          "valueString": "\"\"present\"\", Selected: true"
        } ]
      } ]
    }
  }, {
    "fullUrl": "urn:uuid:7e5447a8-daf0-472e-8c8d-14372f089fcd",
    "resource": {
      "resourceType": "QuestionnaireResponse",
      "id": "7e5447a8-daf0-472e-8c8d-14372f089fcd",
      "identifier": {
        "value": "1766749"
      },
      "questionnaire": {
        "reference": "urn:uuid:bdd90b6a-ca43-431f-8939-07d014a77fa1"
      },
      "status": "completed",
      "subject": {
        "reference": "urn:uuid:b9c0ef29-cb5b-4176-90ba-c50412b72ebb"
      },
      "context": {
        "reference": "urn:uuid:2fec8d32-c87d-42c5-a897-169ab05b5609"
      },
      "authored": "2021-08-03T13:04:53+00:00",
      "item": [ {
        "linkId": "Tx221814",
        "text": "STRING:aninjuryorotherhealthproblemestablishedinEntryFlow",
        "answer": [ {
          "valueString": "\"\"present\"\""
        } ]
      } ]
    }
  }, {
    "fullUrl": "urn:uuid:bdd90b6a-ca43-431f-8939-07d014a77fa1",
    "resource": {
      "resourceType": "Questionnaire",
      "id": "bdd90b6a-ca43-431f-8939-07d014a77fa1",
      "identifier": [ {
        "value": "1766749"
      } ],
      "version": "2021-08-03T13:04:53.000Z",
      "status": "active",
      "experimental": false,
      "date": "2021-08-03T13:04:53+00:00",
      "publisher": "User ID: '922' User name: 'AndrewJ.Walford' User skill set: 'T4'",
      "lastReviewDate": "2021-08-03",
      "contact": [ {
        "telecom": [ {
          "system": "phone",
          "value": "07798501130"
        } ]
      } ],
      "subjectType": [ "Patient" ],
      "item": [ {
        "linkId": "1766749",
        "prefix": "0",
        "text": "STRING:aninjuryorotherhealthproblemestablishedinEntryFlow",
        "type": "choice",
        "required": true,
        "repeats": false,
        "option": [ {
          "valueString": "\"\"present\"\", Selected: true"
        } ]
      } ]
    }
  }, {
    "fullUrl": "urn:uuid:09cbf49b-c364-45ed-a87b-d07a001c1ac7",
    "resource": {
      "resourceType": "QuestionnaireResponse",
      "id": "09cbf49b-c364-45ed-a87b-d07a001c1ac7",
      "identifier": {
        "value": "1766749"
      },
      "questionnaire": {
        "reference": "urn:uuid:b37be628-7a80-4195-a668-ebf1a1883d80"
      },
      "status": "completed",
      "subject": {
        "reference": "urn:uuid:b9c0ef29-cb5b-4176-90ba-c50412b72ebb"
      },
      "context": {
        "reference": "urn:uuid:2fec8d32-c87d-42c5-a897-169ab05b5609"
      },
      "authored": "2021-08-03T13:04:53+00:00",
      "item": [ {
        "linkId": "Tx224120",
        "text": "Have you been bleeding RED BLOOD very heavily IN THE LAST 2 HOURS?",
        "answer": [ {
          "valueString": "no"
        } ]
      } ]
    }
  }, {
    "fullUrl": "urn:uuid:b37be628-7a80-4195-a668-ebf1a1883d80",
    "resource": {
      "resourceType": "Questionnaire",
      "id": "b37be628-7a80-4195-a668-ebf1a1883d80",
      "identifier": [ {
        "value": "1766749"
      } ],
      "version": "2021-08-03T13:04:53.000Z",
      "status": "active",
      "experimental": false,
      "date": "2021-08-03T13:04:53+00:00",
      "publisher": "User ID: '922' User name: 'AndrewJ.Walford' User skill set: 'T4'",
      "lastReviewDate": "2021-08-03",
      "contact": [ {
        "telecom": [ {
          "system": "phone",
          "value": "07798501130"
        } ]
      } ],
      "subjectType": [ "Patient" ],
      "item": [ {
        "linkId": "1766749",
        "prefix": "7000",
        "text": "Have you been bleeding RED BLOOD very heavily IN THE LAST 2 HOURS?",
        "type": "choice",
        "required": true,
        "repeats": false,
        "option": [ {
          "valueString": "yes, Selected: false"
        }, {
          "valueString": "not sure, Selected: false"
        }, {
          "valueString": "no, Selected: true"
        } ]
      } ]
    }
  }, {
    "fullUrl": "urn:uuid:c23afc04-e288-420d-aff6-a51f9cf2a241",
    "resource": {
      "resourceType": "QuestionnaireResponse",
      "id": "c23afc04-e288-420d-aff6-a51f9cf2a241",
      "identifier": {
        "value": "1766749"
      },
      "questionnaire": {
        "reference": "urn:uuid:590c25e6-9d58-4814-a5bf-da2034be91f4"
      },
      "status": "completed",
      "subject": {
        "reference": "urn:uuid:b9c0ef29-cb5b-4176-90ba-c50412b72ebb"
      },
      "context": {
        "reference": "urn:uuid:2fec8d32-c87d-42c5-a897-169ab05b5609"
      },
      "authored": "2021-08-03T13:04:53+00:00",
      "item": [ {
        "linkId": "Tx221343",
        "text": "SocialConcernsExcluded",
        "answer": [ {
          "valueString": "*"
        } ]
      } ]
    }
  }, {
    "fullUrl": "urn:uuid:590c25e6-9d58-4814-a5bf-da2034be91f4",
    "resource": {
      "resourceType": "Questionnaire",
      "id": "590c25e6-9d58-4814-a5bf-da2034be91f4",
      "identifier": [ {
        "value": "1766749"
      } ],
      "version": "2021-08-03T13:04:53.000Z",
      "status": "active",
      "experimental": false,
      "date": "2021-08-03T13:04:53+00:00",
      "publisher": "User ID: '922' User name: 'AndrewJ.Walford' User skill set: 'T4'",
      "lastReviewDate": "2021-08-03",
      "contact": [ {
        "telecom": [ {
          "system": "phone",
          "value": "07798501130"
        } ]
      } ],
      "subjectType": [ "Patient" ],
      "item": [ {
        "linkId": "1766749",
        "prefix": "2700",
        "text": "SocialConcernsExcluded",
        "type": "choice",
        "required": true,
        "repeats": false,
        "option": [ {
          "valueString": "==\"\"present\"\", Selected: false"
        }, {
          "valueString": "*, Selected: true"
        } ]
      } ]
    }
  }, {
    "fullUrl": "urn:uuid:138e526e-6521-4d47-9e00-0483c5ffb1d5",
    "resource": {
      "resourceType": "QuestionnaireResponse",
      "id": "138e526e-6521-4d47-9e00-0483c5ffb1d5",
      "identifier": {
        "value": "1766749"
      },
      "questionnaire": {
        "reference": "urn:uuid:67c4dd9f-2b85-4e3a-82e0-ba22eb8527f5"
      },
      "status": "completed",
      "subject": {
        "reference": "urn:uuid:b9c0ef29-cb5b-4176-90ba-c50412b72ebb"
      },
      "context": {
        "reference": "urn:uuid:2fec8d32-c87d-42c5-a897-169ab05b5609"
      },
      "authored": "2021-08-03T13:04:53+00:00",
      "item": [ {
        "linkId": "Tx130011",
        "text": "What is the main problem?",
        "answer": [ {
          "valueString": "illness or other health problem (specify)"
        } ]
      } ]
    }
  }, {
    "fullUrl": "urn:uuid:67c4dd9f-2b85-4e3a-82e0-ba22eb8527f5",
    "resource": {
      "resourceType": "Questionnaire",
      "id": "67c4dd9f-2b85-4e3a-82e0-ba22eb8527f5",
      "identifier": [ {
        "value": "1766749"
      } ],
      "version": "2021-08-03T13:04:53.000Z",
      "status": "active",
      "experimental": false,
      "date": "2021-08-03T13:04:53+00:00",
      "publisher": "User ID: '922' User name: 'AndrewJ.Walford' User skill set: 'T4'",
      "lastReviewDate": "2021-08-03",
      "contact": [ {
        "telecom": [ {
          "system": "phone",
          "value": "07798501130"
        } ]
      } ],
      "subjectType": [ "Patient" ],
      "item": [ {
        "linkId": "1766749",
        "prefix": "3400",
        "text": "What is the main problem?",
        "type": "choice",
        "required": true,
        "repeats": false,
        "option": [ {
          "valueString": "the individual has been told to follow a particular course of action (specify), Selected: false"
        }, {
          "valueString": "the individual is an identified frequent caller, Selected: false"
        }, {
          "valueString": "injury (specify), Selected: false"
        }, {
          "valueString": "illness or other health problem (specify), Selected: true"
        }, {
          "valueString": "child protection/vulnerable adult concern, Selected: false"
        }, {
          "valueString": "social or domestic emergency, Selected: false"
        }, {
          "valueString": "the environment potentially poses an immediate threat to life (specify), Selected: false"
        } ]
      } ]
    }
  }, {
    "fullUrl": "urn:uuid:84fd3a71-fe57-4fa9-9326-8dfd481d0adf",
    "resource": {
      "resourceType": "QuestionnaireResponse",
      "id": "84fd3a71-fe57-4fa9-9326-8dfd481d0adf",
      "identifier": {
        "value": "1766749"
      },
      "questionnaire": {
        "reference": "urn:uuid:2b20bf9d-c91b-4a9f-997a-7dfd838b5a7b"
      },
      "status": "completed",
      "subject": {
        "reference": "urn:uuid:b9c0ef29-cb5b-4176-90ba-c50412b72ebb"
      },
      "context": {
        "reference": "urn:uuid:2fec8d32-c87d-42c5-a897-169ab05b5609"
      },
      "authored": "2021-08-03T13:04:53+00:00",
      "item": [ {
        "linkId": "Tx61025",
        "text": "Are you so breathless that speaking more than a few words is impossible?",
        "answer": [ {
          "valueString": "no"
        } ]
      } ]
    }
  }, {
    "fullUrl": "urn:uuid:2b20bf9d-c91b-4a9f-997a-7dfd838b5a7b",
    "resource": {
      "resourceType": "Questionnaire",
      "id": "2b20bf9d-c91b-4a9f-997a-7dfd838b5a7b",
      "identifier": [ {
        "value": "1766749"
      } ],
      "version": "2021-08-03T13:04:53.000Z",
      "status": "active",
      "experimental": false,
      "date": "2021-08-03T13:04:53+00:00",
      "publisher": "User ID: '922' User name: 'AndrewJ.Walford' User skill set: 'T4'",
      "lastReviewDate": "2021-08-03",
      "contact": [ {
        "telecom": [ {
          "system": "phone",
          "value": "07798501130"
        } ]
      } ],
      "subjectType": [ "Patient" ],
      "item": [ {
        "linkId": "1766749",
        "prefix": "0",
        "text": "Are you so breathless that speaking more than a few words is impossible?",
        "type": "choice",
        "required": true,
        "repeats": false,
        "option": [ {
          "valueString": "yes, Selected: false"
        }, {
          "valueString": "not sure, Selected: false"
        }, {
          "valueString": "no, Selected: true"
        } ]
      } ]
    }
  }, {
    "fullUrl": "urn:uuid:602a6c6f-0da0-4d8b-8c62-ed6e9d3875b1",
    "resource": {
      "resourceType": "QuestionnaireResponse",
      "id": "602a6c6f-0da0-4d8b-8c62-ed6e9d3875b1",
      "identifier": {
        "value": "1766749"
      },
      "questionnaire": {
        "reference": "urn:uuid:e42da315-e3af-49d0-bace-adfb1509bb2a"
      },
      "status": "completed",
      "subject": {
        "reference": "urn:uuid:b9c0ef29-cb5b-4176-90ba-c50412b72ebb"
      },
      "context": {
        "reference": "urn:uuid:2fec8d32-c87d-42c5-a897-169ab05b5609"
      },
      "authored": "2021-08-03T13:04:53+00:00",
      "item": [ {
        "linkId": "Tx220845",
        "text": "SYSTEM_FLUPANDEMIC",
        "answer": [ {
          "valueString": "*"
        } ]
      } ]
    }
  }, {
    "fullUrl": "urn:uuid:e42da315-e3af-49d0-bace-adfb1509bb2a",
    "resource": {
      "resourceType": "Questionnaire",
      "id": "e42da315-e3af-49d0-bace-adfb1509bb2a",
      "identifier": [ {
        "value": "1766749"
      } ],
      "version": "2021-08-03T13:04:53.000Z",
      "status": "active",
      "experimental": false,
      "date": "2021-08-03T13:04:53+00:00",
      "publisher": "User ID: '922' User name: 'AndrewJ.Walford' User skill set: 'T4'",
      "lastReviewDate": "2021-08-03",
      "contact": [ {
        "telecom": [ {
          "system": "phone",
          "value": "07798501130"
        } ]
      } ],
      "subjectType": [ "Patient" ],
      "item": [ {
        "linkId": "1766749",
        "prefix": "100",
        "text": "SYSTEM_FLUPANDEMIC",
        "type": "choice",
        "required": true,
        "repeats": false,
        "option": [ {
          "valueString": "==\"\"pandemic\"\", Selected: false"
        }, {
          "valueString": "*, Selected: true"
        } ]
      } ]
    }
  }, {
    "fullUrl": "urn:uuid:2296d974-e25c-466a-bf8e-1c8215aee95f",
    "resource": {
      "resourceType": "QuestionnaireResponse",
      "id": "2296d974-e25c-466a-bf8e-1c8215aee95f",
      "identifier": {
        "value": "1766749"
      },
      "questionnaire": {
        "reference": "urn:uuid:b77ca5cb-ebc3-4c20-ba4f-9bb2009bcaa2"
      },
      "status": "completed",
      "subject": {
        "reference": "urn:uuid:b9c0ef29-cb5b-4176-90ba-c50412b72ebb"
      },
      "context": {
        "reference": "urn:uuid:2fec8d32-c87d-42c5-a897-169ab05b5609"
      },
      "authored": "2021-08-03T13:04:53+00:00",
      "item": [ {
        "linkId": "Tx223440",
        "text": "WHAT IS SAID TO BE THE MAIN REASON FOR THIS CONTACT?",
        "answer": [ {
          "valueString": "more"
        } ]
      } ]
    }
  }, {
    "fullUrl": "urn:uuid:b77ca5cb-ebc3-4c20-ba4f-9bb2009bcaa2",
    "resource": {
      "resourceType": "Questionnaire",
      "id": "b77ca5cb-ebc3-4c20-ba4f-9bb2009bcaa2",
      "identifier": [ {
        "value": "1766749"
      } ],
      "version": "2021-08-03T13:04:53.000Z",
      "status": "active",
      "experimental": false,
      "date": "2021-08-03T13:04:53+00:00",
      "publisher": "User ID: '922' User name: 'AndrewJ.Walford' User skill set: 'T4'",
      "lastReviewDate": "2021-08-03",
      "contact": [ {
        "telecom": [ {
          "system": "phone",
          "value": "07798501130"
        } ]
      } ],
      "subjectType": [ "Patient" ],
      "item": [ {
        "linkId": "1766749",
        "prefix": "5000",
        "text": "WHAT IS SAID TO BE THE MAIN REASON FOR THIS CONTACT?",
        "type": "choice",
        "required": true,
        "repeats": false,
        "option": [ {
          "valueString": "a probable allergic reaction now, Selected: false"
        }, {
          "valueString": "a probable heart attack, Selected: false"
        }, {
          "valueString": "chest or upper back pain, Selected: false"
        }, {
          "valueString": "a probable stroke or mini-stroke, Selected: false"
        }, {
          "valueString": "a probable fit or seizure within the last 12 hours, Selected: false"
        }, {
          "valueString": "a suicide attempt, Selected: false"
        }, {
          "valueString": "more, Selected: true"
        } ]
      } ]
    }
  }, {
    "fullUrl": "urn:uuid:de080ee6-00cb-4a5c-8acd-f2bf41e1d3be",
    "resource": {
      "resourceType": "QuestionnaireResponse",
      "id": "de080ee6-00cb-4a5c-8acd-f2bf41e1d3be",
      "identifier": {
        "value": "1766749"
      },
      "questionnaire": {
        "reference": "urn:uuid:6225e91e-becb-4d26-bcb3-b9cfe0e59b0e"
      },
      "status": "completed",
      "subject": {
        "reference": "urn:uuid:b9c0ef29-cb5b-4176-90ba-c50412b72ebb"
      },
      "context": {
        "reference": "urn:uuid:2fec8d32-c87d-42c5-a897-169ab05b5609"
      },
      "authored": "2021-08-03T13:04:53+00:00",
      "item": [ {
        "linkId": "Tx220032",
        "text": "WHAT IS SAID TO BE THE MAIN REASON FOR THIS CONTACT?",
        "answer": [ {
          "valueString": "none of the above"
        } ]
      } ]
    }
  }, {
    "fullUrl": "urn:uuid:6225e91e-becb-4d26-bcb3-b9cfe0e59b0e",
    "resource": {
      "resourceType": "Questionnaire",
      "id": "6225e91e-becb-4d26-bcb3-b9cfe0e59b0e",
      "identifier": [ {
        "value": "1766749"
      } ],
      "version": "2021-08-03T13:04:53.000Z",
      "status": "active",
      "experimental": false,
      "date": "2021-08-03T13:04:53+00:00",
      "publisher": "User ID: '922' User name: 'AndrewJ.Walford' User skill set: 'T4'",
      "lastReviewDate": "2021-08-03",
      "contact": [ {
        "telecom": [ {
          "system": "phone",
          "value": "07798501130"
        } ]
      } ],
      "subjectType": [ "Patient" ],
      "item": [ {
        "linkId": "1766749",
        "prefix": "1900",
        "text": "WHAT IS SAID TO BE THE MAIN REASON FOR THIS CONTACT?",
        "type": "choice",
        "required": true,
        "repeats": false,
        "option": [ {
          "valueString": "new confusion now, Selected: false"
        }, {
          "valueString": "a diabetic hypo (low blood sugar) or a diabetic hyper (high blood sugar), Selected: false"
        }, {
          "valueString": "recovery from an ICD (implanted cardioverter defibrillator) shock, Selected: false"
        }, {
          "valueString": "none of the above, Selected: true"
        } ]
      } ]
    }
  }, {
    "fullUrl": "urn:uuid:ab42070f-55bf-4b53-80f8-f1fd65a5a8c4",
    "resource": {
      "resourceType": "QuestionnaireResponse",
      "id": "ab42070f-55bf-4b53-80f8-f1fd65a5a8c4",
      "identifier": {
        "value": "1766749"
      },
      "questionnaire": {
        "reference": "urn:uuid:84ab2360-6083-4d92-9863-99bee61dd901"
      },
      "status": "completed",
      "subject": {
        "reference": "urn:uuid:b9c0ef29-cb5b-4176-90ba-c50412b72ebb"
      },
      "context": {
        "reference": "urn:uuid:2fec8d32-c87d-42c5-a897-169ab05b5609"
      },
      "authored": "2021-08-03T13:04:53+00:00",
      "item": [ {
        "linkId": "Tx223142",
        "text": "Does the skin on the chest, back or abdomen feel a normal temperature?",
        "answer": [ {
          "valueString": "yes - normal, warm or hot"
        } ]
      } ]
    }
  }, {
    "fullUrl": "urn:uuid:84ab2360-6083-4d92-9863-99bee61dd901",
    "resource": {
      "resourceType": "Questionnaire",
      "id": "84ab2360-6083-4d92-9863-99bee61dd901",
      "identifier": [ {
        "value": "1766749"
      } ],
      "version": "2021-08-03T13:04:53.000Z",
      "status": "active",
      "experimental": false,
      "date": "2021-08-03T13:04:53+00:00",
      "publisher": "User ID: '922' User name: 'AndrewJ.Walford' User skill set: 'T4'",
      "lastReviewDate": "2021-08-03",
      "contact": [ {
        "telecom": [ {
          "system": "phone",
          "value": "07798501130"
        } ]
      } ],
      "subjectType": [ "Patient" ],
      "item": [ {
        "linkId": "1766749",
        "prefix": "4000",
        "text": "Does the skin on the chest, back or abdomen feel a normal temperature?",
        "type": "choice",
        "required": true,
        "repeats": false,
        "option": [ {
          "valueString": "yes - normal, warm or hot, Selected: true"
        }, {
          "valueString": "not sure, Selected: false"
        }, {
          "valueString": "no - cool OR cold, Selected: false"
        }, {
          "valueString": "not safe to touch, Selected: false"
        } ]
      } ]
    }
  }, {
    "fullUrl": "urn:uuid:c9491399-2a0d-464a-8ffc-b0d1221f0042",
    "resource": {
      "resourceType": "QuestionnaireResponse",
      "id": "c9491399-2a0d-464a-8ffc-b0d1221f0042",
      "identifier": {
        "value": "1766749"
      },
      "questionnaire": {
        "reference": "urn:uuid:d3750392-a67b-447d-acbd-b99dcbefe570"
      },
      "status": "completed",
      "subject": {
        "reference": "urn:uuid:b9c0ef29-cb5b-4176-90ba-c50412b72ebb"
      },
      "context": {
        "reference": "urn:uuid:2fec8d32-c87d-42c5-a897-169ab05b5609"
      },
      "authored": "2021-08-03T13:04:53+00:00",
      "item": [ {
        "linkId": "Tx221724",
        "text": "STRING:ShockAsked",
        "answer": [ {
          "valueString": "\"\"present\"\""
        } ]
      } ]
    }
  }, {
    "fullUrl": "urn:uuid:d3750392-a67b-447d-acbd-b99dcbefe570",
    "resource": {
      "resourceType": "Questionnaire",
      "id": "d3750392-a67b-447d-acbd-b99dcbefe570",
      "identifier": [ {
        "value": "1766749"
      } ],
      "version": "2021-08-03T13:04:53.000Z",
      "status": "active",
      "experimental": false,
      "date": "2021-08-03T13:04:53+00:00",
      "publisher": "User ID: '922' User name: 'AndrewJ.Walford' User skill set: 'T4'",
      "lastReviewDate": "2021-08-03",
      "contact": [ {
        "telecom": [ {
          "system": "phone",
          "value": "07798501130"
        } ]
      } ],
      "subjectType": [ "Patient" ],
      "item": [ {
        "linkId": "1766749",
        "prefix": "3300",
        "text": "STRING:ShockAsked",
        "type": "choice",
        "required": true,
        "repeats": false,
        "option": [ {
          "valueString": "\"\"present\"\", Selected: true"
        } ]
      } ]
    }
  }, {
    "fullUrl": "urn:uuid:20506b14-579a-446a-a8dd-2b1ca6041e43",
    "resource": {
      "resourceType": "QuestionnaireResponse",
      "id": "20506b14-579a-446a-a8dd-2b1ca6041e43",
      "identifier": {
        "value": "1766749"
      },
      "questionnaire": {
        "reference": "urn:uuid:6db3e01f-3cc4-401c-9b0a-9d76ce4f7583"
      },
      "status": "completed",
      "subject": {
        "reference": "urn:uuid:b9c0ef29-cb5b-4176-90ba-c50412b72ebb"
      },
      "context": {
        "reference": "urn:uuid:2fec8d32-c87d-42c5-a897-169ab05b5609"
      },
      "authored": "2021-08-03T13:04:53+00:00"
    }
  }, {
    "fullUrl": "urn:uuid:6db3e01f-3cc4-401c-9b0a-9d76ce4f7583",
    "resource": {
      "resourceType": "Questionnaire",
      "id": "6db3e01f-3cc4-401c-9b0a-9d76ce4f7583",
      "identifier": [ {
        "value": "1766749"
      } ],
      "version": "2021-08-03T13:04:53.000Z",
      "status": "active",
      "experimental": false,
      "date": "2021-08-03T13:04:53+00:00",
      "publisher": "User ID: '922' User name: 'AndrewJ.Walford' User skill set: 'T4'",
      "lastReviewDate": "2021-08-03",
      "contact": [ {
        "telecom": [ {
          "system": "phone",
          "value": "07798501130"
        } ]
      } ],
      "subjectType": [ "Patient" ]
    }
  }, {
    "fullUrl": "urn:uuid:3cdcf598-fdef-415a-bf2f-fa817b398d21",
    "resource": {
      "resourceType": "QuestionnaireResponse",
      "id": "3cdcf598-fdef-415a-bf2f-fa817b398d21",
      "identifier": {
        "value": "1766749"
      },
      "questionnaire": {
        "reference": "urn:uuid:699d8089-864f-4686-82f0-49053d0dcf43"
      },
      "status": "completed",
      "subject": {
        "reference": "urn:uuid:b9c0ef29-cb5b-4176-90ba-c50412b72ebb"
      },
      "context": {
        "reference": "urn:uuid:2fec8d32-c87d-42c5-a897-169ab05b5609"
      },
      "authored": "2021-08-03T13:04:53+00:00"
    }
  }, {
    "fullUrl": "urn:uuid:699d8089-864f-4686-82f0-49053d0dcf43",
    "resource": {
      "resourceType": "Questionnaire",
      "id": "699d8089-864f-4686-82f0-49053d0dcf43",
      "identifier": [ {
        "value": "1766749"
      } ],
      "version": "2021-08-03T13:04:53.000Z",
      "status": "active",
      "experimental": false,
      "date": "2021-08-03T13:04:53+00:00",
      "publisher": "User ID: '922' User name: 'AndrewJ.Walford' User skill set: 'T4'",
      "lastReviewDate": "2021-08-03",
      "contact": [ {
        "telecom": [ {
          "system": "phone",
          "value": "07798501130"
        } ]
      } ],
      "subjectType": [ "Patient" ]
    }
  }, {
    "fullUrl": "urn:uuid:8502742e-33ae-4f00-9fc1-94963b3ffc2a",
    "resource": {
      "resourceType": "QuestionnaireResponse",
      "id": "8502742e-33ae-4f00-9fc1-94963b3ffc2a",
      "identifier": {
        "value": "1766749"
      },
      "questionnaire": {
        "reference": "urn:uuid:195dc813-15ca-4ba8-aa63-b815665dc662"
      },
      "status": "completed",
      "subject": {
        "reference": "urn:uuid:b9c0ef29-cb5b-4176-90ba-c50412b72ebb"
      },
      "context": {
        "reference": "urn:uuid:2fec8d32-c87d-42c5-a897-169ab05b5609"
      },
      "authored": "2021-08-03T13:04:53+00:00",
      "item": [ {
        "linkId": "Tx224190",
        "text": "Does the problem stop you from doing ALL of your normal activities?",
        "answer": [ {
          "valueString": "no - able to do most or all of their activities"
        } ]
      } ]
    }
  }, {
    "fullUrl": "urn:uuid:195dc813-15ca-4ba8-aa63-b815665dc662",
    "resource": {
      "resourceType": "Questionnaire",
      "id": "195dc813-15ca-4ba8-aa63-b815665dc662",
      "identifier": [ {
        "value": "1766749"
      } ],
      "version": "2021-08-03T13:04:53.000Z",
      "status": "active",
      "experimental": false,
      "date": "2021-08-03T13:04:53+00:00",
      "publisher": "User ID: '922' User name: 'AndrewJ.Walford' User skill set: 'T4'",
      "lastReviewDate": "2021-08-03",
      "contact": [ {
        "telecom": [ {
          "system": "phone",
          "value": "07798501130"
        } ]
      } ],
      "subjectType": [ "Patient" ],
      "item": [ {
        "linkId": "1766749",
        "prefix": "4900",
        "text": "Does the problem stop you from doing ALL of your normal activities?",
        "type": "choice",
        "required": true,
        "repeats": false,
        "option": [ {
          "valueString": "yes - unable to do all of their normal activities, Selected: false"
        }, {
          "valueString": "no - able to do some of their normal activities, Selected: false"
        }, {
          "valueString": "no - able to do most or all of their activities, Selected: true"
        } ]
      } ]
    }
  }, {
    "fullUrl": "urn:uuid:0b39cbe2-27f9-4afa-9e31-c00828fe119e",
    "resource": {
      "resourceType": "QuestionnaireResponse",
      "id": "0b39cbe2-27f9-4afa-9e31-c00828fe119e",
      "identifier": {
        "value": "1766749"
      },
      "questionnaire": {
        "reference": "urn:uuid:e1fe07f3-17e8-456f-b6a2-edb95738697e"
      },
      "status": "completed",
      "subject": {
        "reference": "urn:uuid:b9c0ef29-cb5b-4176-90ba-c50412b72ebb"
      },
      "context": {
        "reference": "urn:uuid:2fec8d32-c87d-42c5-a897-169ab05b5609"
      },
      "authored": "2021-08-03T13:04:53+00:00",
      "item": [ {
        "linkId": "Tx220244",
        "text": "Have you got any of the following new symptoms?",
        "answer": [ {
          "valueString": "no"
        } ]
      } ]
    }
  }, {
    "fullUrl": "urn:uuid:e1fe07f3-17e8-456f-b6a2-edb95738697e",
    "resource": {
      "resourceType": "Questionnaire",
      "id": "e1fe07f3-17e8-456f-b6a2-edb95738697e",
      "identifier": [ {
        "value": "1766749"
      } ],
      "version": "2021-08-03T13:04:53.000Z",
      "status": "active",
      "experimental": false,
      "date": "2021-08-03T13:04:53+00:00",
      "publisher": "User ID: '922' User name: 'AndrewJ.Walford' User skill set: 'T4'",
      "lastReviewDate": "2021-08-03",
      "contact": [ {
        "telecom": [ {
          "system": "phone",
          "value": "07798501130"
        } ]
      } ],
      "subjectType": [ "Patient" ],
      "item": [ {
        "linkId": "1766749",
        "prefix": "17",
        "text": "Have you got any of the following new symptoms?",
        "type": "choice",
        "required": true,
        "repeats": false,
        "option": [ {
          "valueString": "unable to control the bowels, Selected: false"
        }, {
          "valueString": "unable to move one or both legs, Selected: false"
        }, {
          "valueString": "numbness or pins and needles in both legs or around the back passage, Selected: false"
        }, {
          "valueString": "not sure, Selected: false"
        }, {
          "valueString": "no, Selected: true"
        } ]
      } ]
    }
  }, {
    "fullUrl": "urn:uuid:9a83d8b6-7207-4c73-8b0c-c5ab60888f70",
    "resource": {
      "resourceType": "QuestionnaireResponse",
      "id": "9a83d8b6-7207-4c73-8b0c-c5ab60888f70",
      "identifier": {
        "value": "1766749"
      },
      "questionnaire": {
        "reference": "urn:uuid:451750d6-9457-42e2-a229-eb1ca5a1fa0f"
      },
      "status": "completed",
      "subject": {
        "reference": "urn:uuid:b9c0ef29-cb5b-4176-90ba-c50412b72ebb"
      },
      "context": {
        "reference": "urn:uuid:2fec8d32-c87d-42c5-a897-169ab05b5609"
      },
      "authored": "2021-08-03T13:04:53+00:00",
      "item": [ {
        "linkId": "Tx221119",
        "text": "FunctionallyImpaired",
        "answer": [ {
          "valueString": "*"
        } ]
      } ]
    }
  }, {
    "fullUrl": "urn:uuid:451750d6-9457-42e2-a229-eb1ca5a1fa0f",
    "resource": {
      "resourceType": "Questionnaire",
      "id": "451750d6-9457-42e2-a229-eb1ca5a1fa0f",
      "identifier": [ {
        "value": "1766749"
      } ],
      "version": "2021-08-03T13:04:53.000Z",
      "status": "active",
      "experimental": false,
      "date": "2021-08-03T13:04:53+00:00",
      "publisher": "User ID: '922' User name: 'AndrewJ.Walford' User skill set: 'T4'",
      "lastReviewDate": "2021-08-03",
      "contact": [ {
        "telecom": [ {
          "system": "phone",
          "value": "07798501130"
        } ]
      } ],
      "subjectType": [ "Patient" ],
      "item": [ {
        "linkId": "1766749",
        "prefix": "5400",
        "text": "FunctionallyImpaired",
        "type": "choice",
        "required": true,
        "repeats": false,
        "option": [ {
          "valueString": "==\"\"present\"\", Selected: false"
        }, {
          "valueString": "*, Selected: true"
        } ]
      } ]
    }
  }, {
    "fullUrl": "urn:uuid:3fe074b2-c0f6-4f76-865a-271df3b284dc",
    "resource": {
      "resourceType": "QuestionnaireResponse",
      "id": "3fe074b2-c0f6-4f76-865a-271df3b284dc",
      "identifier": {
        "value": "1766749"
      },
      "questionnaire": {
        "reference": "urn:uuid:a0056cee-66bd-4484-a74f-2fc029f91cf8"
      },
      "status": "completed",
      "subject": {
        "reference": "urn:uuid:b9c0ef29-cb5b-4176-90ba-c50412b72ebb"
      },
      "context": {
        "reference": "urn:uuid:2fec8d32-c87d-42c5-a897-169ab05b5609"
      },
      "authored": "2021-08-03T13:04:53+00:00",
      "item": [ {
        "linkId": "Tx221639",
        "text": "Have you been unable to pass urine for the last 12 hours, except for a few drops?",
        "answer": [ {
          "valueString": "no (ABLE TO pass urine)"
        } ]
      } ]
    }
  }, {
    "fullUrl": "urn:uuid:a0056cee-66bd-4484-a74f-2fc029f91cf8",
    "resource": {
      "resourceType": "Questionnaire",
      "id": "a0056cee-66bd-4484-a74f-2fc029f91cf8",
      "identifier": [ {
        "value": "1766749"
      } ],
      "version": "2021-08-03T13:04:53.000Z",
      "status": "active",
      "experimental": false,
      "date": "2021-08-03T13:04:53+00:00",
      "publisher": "User ID: '922' User name: 'AndrewJ.Walford' User skill set: 'T4'",
      "lastReviewDate": "2021-08-03",
      "contact": [ {
        "telecom": [ {
          "system": "phone",
          "value": "07798501130"
        } ]
      } ],
      "subjectType": [ "Patient" ],
      "item": [ {
        "linkId": "1766749",
        "prefix": "6100",
        "text": "Have you been unable to pass urine for the last 12 hours, except for a few drops?",
        "type": "choice",
        "required": true,
        "repeats": false,
        "option": [ {
          "valueString": "yes (UNABLE TO pass urine), Selected: false"
        }, {
          "valueString": "not sure, Selected: false"
        }, {
          "valueString": "no (ABLE TO pass urine), Selected: true"
        } ]
      } ]
    }
  }, {
    "fullUrl": "urn:uuid:1eff7f0e-c0a2-44af-8792-5a94dd7348ea",
    "resource": {
      "resourceType": "QuestionnaireResponse",
      "id": "1eff7f0e-c0a2-44af-8792-5a94dd7348ea",
      "identifier": {
        "value": "1766749"
      },
      "questionnaire": {
        "reference": "urn:uuid:9fc1300e-7046-48ae-9958-7d3d4f6b0012"
      },
      "status": "completed",
      "subject": {
        "reference": "urn:uuid:b9c0ef29-cb5b-4176-90ba-c50412b72ebb"
      },
      "context": {
        "reference": "urn:uuid:2fec8d32-c87d-42c5-a897-169ab05b5609"
      },
      "authored": "2021-08-03T13:04:53+00:00",
      "item": [ {
        "linkId": "Tx221119",
        "text": "FunctionallyImpaired",
        "answer": [ {
          "valueString": "*"
        } ]
      } ]
    }
  }, {
    "fullUrl": "urn:uuid:9fc1300e-7046-48ae-9958-7d3d4f6b0012",
    "resource": {
      "resourceType": "Questionnaire",
      "id": "9fc1300e-7046-48ae-9958-7d3d4f6b0012",
      "identifier": [ {
        "value": "1766749"
      } ],
      "version": "2021-08-03T13:04:53.000Z",
      "status": "active",
      "experimental": false,
      "date": "2021-08-03T13:04:53+00:00",
      "publisher": "User ID: '922' User name: 'AndrewJ.Walford' User skill set: 'T4'",
      "lastReviewDate": "2021-08-03",
      "contact": [ {
        "telecom": [ {
          "system": "phone",
          "value": "07798501130"
        } ]
      } ],
      "subjectType": [ "Patient" ],
      "item": [ {
        "linkId": "1766749",
        "prefix": "7200",
        "text": "FunctionallyImpaired",
        "type": "choice",
        "required": true,
        "repeats": false,
        "option": [ {
          "valueString": "==\"\"present\"\", Selected: false"
        }, {
          "valueString": "*, Selected: true"
        } ]
      } ]
    }
  }, {
    "fullUrl": "urn:uuid:3bd8eaed-f184-4ad6-a1ca-779fab51f7cb",
    "resource": {
      "resourceType": "QuestionnaireResponse",
      "id": "3bd8eaed-f184-4ad6-a1ca-779fab51f7cb",
      "identifier": {
        "value": "1766749"
      },
      "questionnaire": {
        "reference": "urn:uuid:266bd0aa-007a-4be1-899a-3bc7f68b43f3"
      },
      "status": "completed",
      "subject": {
        "reference": "urn:uuid:b9c0ef29-cb5b-4176-90ba-c50412b72ebb"
      },
      "context": {
        "reference": "urn:uuid:2fec8d32-c87d-42c5-a897-169ab05b5609"
      },
      "authored": "2021-08-03T13:04:53+00:00",
      "item": [ {
        "linkId": "Tx223485",
        "text": "ConfusionDeclared",
        "answer": [ {
          "valueString": "*"
        } ]
      } ]
    }
  }, {
    "fullUrl": "urn:uuid:266bd0aa-007a-4be1-899a-3bc7f68b43f3",
    "resource": {
      "resourceType": "Questionnaire",
      "id": "266bd0aa-007a-4be1-899a-3bc7f68b43f3",
      "identifier": [ {
        "value": "1766749"
      } ],
      "version": "2021-08-03T13:04:53.000Z",
      "status": "active",
      "experimental": false,
      "date": "2021-08-03T13:04:53+00:00",
      "publisher": "User ID: '922' User name: 'AndrewJ.Walford' User skill set: 'T4'",
      "lastReviewDate": "2021-08-03",
      "contact": [ {
        "telecom": [ {
          "system": "phone",
          "value": "07798501130"
        } ]
      } ],
      "subjectType": [ "Patient" ],
      "item": [ {
        "linkId": "1766749",
        "prefix": "2900",
        "text": "ConfusionDeclared",
        "type": "choice",
        "required": true,
        "repeats": false,
        "option": [ {
          "valueString": "==\"\"present\"\", Selected: false"
        }, {
          "valueString": "*, Selected: true"
        } ]
      } ]
    }
  }, {
    "fullUrl": "urn:uuid:3f7c0060-92e6-465b-a48f-9e0e230a6e99",
    "resource": {
      "resourceType": "QuestionnaireResponse",
      "id": "3f7c0060-92e6-465b-a48f-9e0e230a6e99",
      "identifier": {
        "value": "1766749"
      },
      "questionnaire": {
        "reference": "urn:uuid:fa8f8000-fca4-4014-bd51-bfdab77aa249"
      },
      "status": "completed",
      "subject": {
        "reference": "urn:uuid:b9c0ef29-cb5b-4176-90ba-c50412b72ebb"
      },
      "context": {
        "reference": "urn:uuid:2fec8d32-c87d-42c5-a897-169ab05b5609"
      },
      "authored": "2021-08-03T13:04:53+00:00",
      "item": [ {
        "linkId": "Tx1213",
        "text": "Have you suddenly become confused OR more confused than usual?",
        "answer": [ {
          "valueString": "no"
        } ]
      } ]
    }
  }, {
    "fullUrl": "urn:uuid:fa8f8000-fca4-4014-bd51-bfdab77aa249",
    "resource": {
      "resourceType": "Questionnaire",
      "id": "fa8f8000-fca4-4014-bd51-bfdab77aa249",
      "identifier": [ {
        "value": "1766749"
      } ],
      "version": "2021-08-03T13:04:53.000Z",
      "status": "active",
      "experimental": false,
      "date": "2021-08-03T13:04:53+00:00",
      "publisher": "User ID: '922' User name: 'AndrewJ.Walford' User skill set: 'T4'",
      "lastReviewDate": "2021-08-03",
      "contact": [ {
        "telecom": [ {
          "system": "phone",
          "value": "07798501130"
        } ]
      } ],
      "subjectType": [ "Patient" ],
      "item": [ {
        "linkId": "1766749",
        "prefix": "7700",
        "text": "Have you suddenly become confused OR more confused than usual?",
        "type": "choice",
        "required": true,
        "repeats": false,
        "option": [ {
          "valueString": "yes, Selected: false"
        }, {
          "valueString": "not sure, Selected: false"
        }, {
          "valueString": "no, Selected: true"
        } ]
      } ]
    }
  }, {
    "fullUrl": "urn:uuid:611e55b2-5c7f-4b07-bf6f-aa2c9e67ffcf",
    "resource": {
      "resourceType": "QuestionnaireResponse",
      "id": "611e55b2-5c7f-4b07-bf6f-aa2c9e67ffcf",
      "identifier": {
        "value": "1766749"
      },
      "questionnaire": {
        "reference": "urn:uuid:69f49e07-389e-4516-83ab-6b6b9e5eb001"
      },
      "status": "completed",
      "subject": {
        "reference": "urn:uuid:b9c0ef29-cb5b-4176-90ba-c50412b72ebb"
      },
      "context": {
        "reference": "urn:uuid:2fec8d32-c87d-42c5-a897-169ab05b5609"
      },
      "authored": "2021-08-03T13:04:53+00:00",
      "item": [ {
        "linkId": "Tx220164",
        "text": "Are you breathing faster or harder when doing nothing at all?",
        "answer": [ {
          "valueString": "no"
        } ]
      } ]
    }
  }, {
    "fullUrl": "urn:uuid:69f49e07-389e-4516-83ab-6b6b9e5eb001",
    "resource": {
      "resourceType": "Questionnaire",
      "id": "69f49e07-389e-4516-83ab-6b6b9e5eb001",
      "identifier": [ {
        "value": "1766749"
      } ],
      "version": "2021-08-03T13:04:53.000Z",
      "status": "active",
      "experimental": false,
      "date": "2021-08-03T13:04:53+00:00",
      "publisher": "User ID: '922' User name: 'AndrewJ.Walford' User skill set: 'T4'",
      "lastReviewDate": "2021-08-03",
      "contact": [ {
        "telecom": [ {
          "system": "phone",
          "value": "07798501130"
        } ]
      } ],
      "subjectType": [ "Patient" ],
      "item": [ {
        "linkId": "1766749",
        "prefix": "3400",
        "text": "Are you breathing faster or harder when doing nothing at all?",
        "type": "choice",
        "required": true,
        "repeats": false,
        "option": [ {
          "valueString": "yes, Selected: false"
        }, {
          "valueString": "not sure, Selected: false"
        }, {
          "valueString": "no, Selected: true"
        } ]
      } ]
    }
  }, {
    "fullUrl": "urn:uuid:0b5901bd-be89-4002-b0df-bcf982e39fda",
    "resource": {
      "resourceType": "QuestionnaireResponse",
      "id": "0b5901bd-be89-4002-b0df-bcf982e39fda",
      "identifier": {
        "value": "1766749"
      },
      "questionnaire": {
        "reference": "urn:uuid:2662054d-25ac-4ee9-9d89-4da996cf18ec"
      },
      "status": "completed",
      "subject": {
        "reference": "urn:uuid:b9c0ef29-cb5b-4176-90ba-c50412b72ebb"
      },
      "context": {
        "reference": "urn:uuid:2fec8d32-c87d-42c5-a897-169ab05b5609"
      },
      "authored": "2021-08-03T13:04:53+00:00",
      "item": [ {
        "linkId": "Tx224506",
        "text": "UnableToPassUrine",
        "answer": [ {
          "valueString": "*"
        } ]
      } ]
    }
  }, {
    "fullUrl": "urn:uuid:2662054d-25ac-4ee9-9d89-4da996cf18ec",
    "resource": {
      "resourceType": "Questionnaire",
      "id": "2662054d-25ac-4ee9-9d89-4da996cf18ec",
      "identifier": [ {
        "value": "1766749"
      } ],
      "version": "2021-08-03T13:04:53.000Z",
      "status": "active",
      "experimental": false,
      "date": "2021-08-03T13:04:53+00:00",
      "publisher": "User ID: '922' User name: 'AndrewJ.Walford' User skill set: 'T4'",
      "lastReviewDate": "2021-08-03",
      "contact": [ {
        "telecom": [ {
          "system": "phone",
          "value": "07798501130"
        } ]
      } ],
      "subjectType": [ "Patient" ],
      "item": [ {
        "linkId": "1766749",
        "prefix": "8300",
        "text": "UnableToPassUrine",
        "type": "choice",
        "required": true,
        "repeats": false,
        "option": [ {
          "valueString": "==\"\"present\"\", Selected: false"
        }, {
          "valueString": "*, Selected: true"
        } ]
      } ]
    }
  }, {
    "fullUrl": "urn:uuid:bfe91a9d-b6bc-47dc-8862-7d68403b05c9",
    "resource": {
      "resourceType": "QuestionnaireResponse",
      "id": "bfe91a9d-b6bc-47dc-8862-7d68403b05c9",
      "identifier": {
        "value": "1766749"
      },
      "questionnaire": {
        "reference": "urn:uuid:3c1df193-2f88-4e45-ac81-5cb76648d9b5"
      },
      "status": "completed",
      "subject": {
        "reference": "urn:uuid:b9c0ef29-cb5b-4176-90ba-c50412b72ebb"
      },
      "context": {
        "reference": "urn:uuid:2fec8d32-c87d-42c5-a897-169ab05b5609"
      },
      "authored": "2021-08-03T13:04:53+00:00",
      "item": [ {
        "linkId": "Tx222078",
        "text": "Have you got pain in the spine?",
        "answer": [ {
          "valueString": "no"
        } ]
      } ]
    }
  }, {
    "fullUrl": "urn:uuid:3c1df193-2f88-4e45-ac81-5cb76648d9b5",
    "resource": {
      "resourceType": "Questionnaire",
      "id": "3c1df193-2f88-4e45-ac81-5cb76648d9b5",
      "identifier": [ {
        "value": "1766749"
      } ],
      "version": "2021-08-03T13:04:53.000Z",
      "status": "active",
      "experimental": false,
      "date": "2021-08-03T13:04:53+00:00",
      "publisher": "User ID: '922' User name: 'AndrewJ.Walford' User skill set: 'T4'",
      "lastReviewDate": "2021-08-03",
      "contact": [ {
        "telecom": [ {
          "system": "phone",
          "value": "07798501130"
        } ]
      } ],
      "subjectType": [ "Patient" ],
      "item": [ {
        "linkId": "1766749",
        "prefix": "400",
        "text": "Have you got pain in the spine?",
        "type": "choice",
        "required": true,
        "repeats": false,
        "option": [ {
          "valueString": "yes, Selected: false"
        }, {
          "valueString": "not sure, Selected: false"
        }, {
          "valueString": "no, Selected: true"
        } ]
      } ]
    }
  }, {
    "fullUrl": "urn:uuid:b2e653f3-ac5c-47fe-9dfd-c70b98bab97c",
    "resource": {
      "resourceType": "QuestionnaireResponse",
      "id": "b2e653f3-ac5c-47fe-9dfd-c70b98bab97c",
      "identifier": {
        "value": "1766749"
      },
      "questionnaire": {
        "reference": "urn:uuid:d15119fd-b351-4011-9397-337b9ab68ccd"
      },
      "status": "completed",
      "subject": {
        "reference": "urn:uuid:b9c0ef29-cb5b-4176-90ba-c50412b72ebb"
      },
      "context": {
        "reference": "urn:uuid:2fec8d32-c87d-42c5-a897-169ab05b5609"
      },
      "authored": "2021-08-03T13:04:53+00:00",
      "item": [ {
        "linkId": "Tx220168",
        "text": "Have you got pain that is getting worse?",
        "answer": [ {
          "valueString": "no"
        } ]
      } ]
    }
  }, {
    "fullUrl": "urn:uuid:d15119fd-b351-4011-9397-337b9ab68ccd",
    "resource": {
      "resourceType": "Questionnaire",
      "id": "d15119fd-b351-4011-9397-337b9ab68ccd",
      "identifier": [ {
        "value": "1766749"
      } ],
      "version": "2021-08-03T13:04:53.000Z",
      "status": "active",
      "experimental": false,
      "date": "2021-08-03T13:04:53+00:00",
      "publisher": "User ID: '922' User name: 'AndrewJ.Walford' User skill set: 'T4'",
      "lastReviewDate": "2021-08-03",
      "contact": [ {
        "telecom": [ {
          "system": "phone",
          "value": "07798501130"
        } ]
      } ],
      "subjectType": [ "Patient" ],
      "item": [ {
        "linkId": "1766749",
        "prefix": "300",
        "text": "Have you got pain that is getting worse?",
        "type": "choice",
        "required": true,
        "repeats": false,
        "option": [ {
          "valueString": "yes, Selected: false"
        }, {
          "valueString": "not sure, Selected: false"
        }, {
          "valueString": "no, Selected: true"
        } ]
      } ]
    }
  }, {
    "fullUrl": "urn:uuid:acbfbd51-ce54-4d8e-b2ea-865433fce0b7",
    "resource": {
      "resourceType": "QuestionnaireResponse",
      "id": "acbfbd51-ce54-4d8e-b2ea-865433fce0b7",
      "identifier": {
        "value": "1766749"
      },
      "questionnaire": {
        "reference": "urn:uuid:15c3339a-97d5-4aa7-a537-7baab9fb93e6"
      },
      "status": "completed",
      "subject": {
        "reference": "urn:uuid:b9c0ef29-cb5b-4176-90ba-c50412b72ebb"
      },
      "context": {
        "reference": "urn:uuid:2fec8d32-c87d-42c5-a897-169ab05b5609"
      },
      "authored": "2021-08-03T13:04:53+00:00",
      "item": [ {
        "linkId": "Tx1122",
        "text": "Have you felt hot or feverish at any time in the last 12 hours?",
        "answer": [ {
          "valueString": "no"
        } ]
      } ]
    }
  }, {
    "fullUrl": "urn:uuid:15c3339a-97d5-4aa7-a537-7baab9fb93e6",
    "resource": {
      "resourceType": "Questionnaire",
      "id": "15c3339a-97d5-4aa7-a537-7baab9fb93e6",
      "identifier": [ {
        "value": "1766749"
      } ],
      "version": "2021-08-03T13:04:53.000Z",
      "status": "active",
      "experimental": false,
      "date": "2021-08-03T13:04:53+00:00",
      "publisher": "User ID: '922' User name: 'AndrewJ.Walford' User skill set: 'T4'",
      "lastReviewDate": "2021-08-03",
      "contact": [ {
        "telecom": [ {
          "system": "phone",
          "value": "07798501130"
        } ]
      } ],
      "subjectType": [ "Patient" ],
      "item": [ {
        "linkId": "1766749",
        "prefix": "500",
        "text": "Have you felt hot or feverish at any time in the last 12 hours?",
        "type": "choice",
        "required": true,
        "repeats": false,
        "option": [ {
          "valueString": "yes - temperature not taken, Selected: false"
        }, {
          "valueString": "yes - temperature taken (specify), Selected: false"
        }, {
          "valueString": "not sure, Selected: false"
        }, {
          "valueString": "no, Selected: true"
        } ]
      } ]
    }
  }, {
    "fullUrl": "urn:uuid:df84232d-838d-4f4c-937b-3aefd13e5113",
    "resource": {
      "resourceType": "QuestionnaireResponse",
      "id": "df84232d-838d-4f4c-937b-3aefd13e5113",
      "identifier": {
        "value": "1766749"
      },
      "questionnaire": {
        "reference": "urn:uuid:c700a0cf-b70b-477b-8247-a1fe71f26891"
      },
      "status": "completed",
      "subject": {
        "reference": "urn:uuid:b9c0ef29-cb5b-4176-90ba-c50412b72ebb"
      },
      "context": {
        "reference": "urn:uuid:2fec8d32-c87d-42c5-a897-169ab05b5609"
      },
      "authored": "2021-08-03T13:04:53+00:00",
      "item": [ {
        "linkId": "Tx1233",
        "text": "Have you had a back injury IN THE LAST 4 WEEKS?",
        "answer": [ {
          "valueString": "no"
        } ]
      } ]
    }
  }, {
    "fullUrl": "urn:uuid:c700a0cf-b70b-477b-8247-a1fe71f26891",
    "resource": {
      "resourceType": "Questionnaire",
      "id": "c700a0cf-b70b-477b-8247-a1fe71f26891",
      "identifier": [ {
        "value": "1766749"
      } ],
      "version": "2021-08-03T13:04:53.000Z",
      "status": "active",
      "experimental": false,
      "date": "2021-08-03T13:04:53+00:00",
      "publisher": "User ID: '922' User name: 'AndrewJ.Walford' User skill set: 'T4'",
      "lastReviewDate": "2021-08-03",
      "contact": [ {
        "telecom": [ {
          "system": "phone",
          "value": "07798501130"
        } ]
      } ],
      "subjectType": [ "Patient" ],
      "item": [ {
        "linkId": "1766749",
        "prefix": "900",
        "text": "Have you had a back injury IN THE LAST 4 WEEKS?",
        "type": "choice",
        "required": true,
        "repeats": false,
        "option": [ {
          "valueString": "yes, Selected: false"
        }, {
          "valueString": "not sure, Selected: false"
        }, {
          "valueString": "no, Selected: true"
        } ]
      } ]
    }
  }, {
    "fullUrl": "urn:uuid:808f260c-efd1-4fd0-80e6-f9736d614af3",
    "resource": {
      "resourceType": "QuestionnaireResponse",
      "id": "808f260c-efd1-4fd0-80e6-f9736d614af3",
      "identifier": {
        "value": "1766749"
      },
      "questionnaire": {
        "reference": "urn:uuid:99d675a4-1511-4f1a-a70b-7257b69b9b6b"
      },
      "status": "completed",
      "subject": {
        "reference": "urn:uuid:b9c0ef29-cb5b-4176-90ba-c50412b72ebb"
      },
      "context": {
        "reference": "urn:uuid:2fec8d32-c87d-42c5-a897-169ab05b5609"
      },
      "authored": "2021-08-03T13:04:53+00:00",
      "item": [ {
        "linkId": "Tx2947",
        "text": "Have you had any change of medication IN THE LAST 2 WEEKS?",
        "answer": [ {
          "valueString": "no"
        } ]
      } ]
    }
  }, {
    "fullUrl": "urn:uuid:99d675a4-1511-4f1a-a70b-7257b69b9b6b",
    "resource": {
      "resourceType": "Questionnaire",
      "id": "99d675a4-1511-4f1a-a70b-7257b69b9b6b",
      "identifier": [ {
        "value": "1766749"
      } ],
      "version": "2021-08-03T13:04:53.000Z",
      "status": "active",
      "experimental": false,
      "date": "2021-08-03T13:04:53+00:00",
      "publisher": "User ID: '922' User name: 'AndrewJ.Walford' User skill set: 'T4'",
      "lastReviewDate": "2021-08-03",
      "contact": [ {
        "telecom": [ {
          "system": "phone",
          "value": "07798501130"
        } ]
      } ],
      "subjectType": [ "Patient" ],
      "item": [ {
        "linkId": "1766749",
        "prefix": "1000",
        "text": "Have you had any change of medication IN THE LAST 2 WEEKS?",
        "type": "choice",
        "required": true,
        "repeats": false,
        "option": [ {
          "valueString": "started new medication, Selected: false"
        }, {
          "valueString": "changed the dose of medication, Selected: false"
        }, {
          "valueString": "stopped medication, Selected: false"
        }, {
          "valueString": "not sure, Selected: false"
        }, {
          "valueString": "no, Selected: true"
        } ]
      } ]
    }
  }, {
    "fullUrl": "urn:uuid:f44aff2e-389a-401f-aaed-97b382f34c75",
    "resource": {
      "resourceType": "QuestionnaireResponse",
      "id": "f44aff2e-389a-401f-aaed-97b382f34c75",
      "identifier": {
        "value": "1766749"
      },
      "questionnaire": {
        "reference": "urn:uuid:bbe06ebc-6850-4cb7-aff8-c295e0f82757"
      },
      "status": "completed",
      "subject": {
        "reference": "urn:uuid:b9c0ef29-cb5b-4176-90ba-c50412b72ebb"
      },
      "context": {
        "reference": "urn:uuid:2fec8d32-c87d-42c5-a897-169ab05b5609"
      },
      "authored": "2021-08-03T13:04:53+00:00",
      "item": [ {
        "linkId": "Tx221449",
        "text": "STRING:SDPCFullPrimaryCareassessmentandprescribingcapability",
        "answer": [ {
          "valueString": "\"\"PC full Primary Care assessment and prescribing capability\"\""
        } ]
      } ]
    }
  }, {
    "fullUrl": "urn:uuid:bbe06ebc-6850-4cb7-aff8-c295e0f82757",
    "resource": {
      "resourceType": "Questionnaire",
      "id": "bbe06ebc-6850-4cb7-aff8-c295e0f82757",
      "identifier": [ {
        "value": "1766749"
      } ],
      "version": "2021-08-03T13:04:53.000Z",
      "status": "active",
      "experimental": false,
      "date": "2021-08-03T13:04:53+00:00",
      "publisher": "User ID: '922' User name: 'AndrewJ.Walford' User skill set: 'T4'",
      "lastReviewDate": "2021-08-03",
      "contact": [ {
        "telecom": [ {
          "system": "phone",
          "value": "07798501130"
        } ]
      } ],
      "subjectType": [ "Patient" ],
      "item": [ {
        "linkId": "1766749",
        "prefix": "1200",
        "text": "STRING:SDPCFullPrimaryCareassessmentandprescribingcapability",
        "type": "choice",
        "required": true,
        "repeats": false,
        "option": [ {
          "valueString": "\"\"PC full Primary Care assessment and prescribing capability\"\", Selected: true"
        } ]
      } ]
    }
  }, {
    "fullUrl": "urn:uuid:2aa22fe0-0f09-44ea-8e0b-8e86b99c4e1c",
    "resource": {
      "resourceType": "QuestionnaireResponse",
      "id": "2aa22fe0-0f09-44ea-8e0b-8e86b99c4e1c",
      "identifier": {
        "value": "1766749"
      },
      "questionnaire": {
        "reference": "urn:uuid:75d7b38f-170e-4a14-94dc-0b312d6545ac"
      },
      "status": "completed",
      "subject": {
        "reference": "urn:uuid:b9c0ef29-cb5b-4176-90ba-c50412b72ebb"
      },
      "context": {
        "reference": "urn:uuid:2fec8d32-c87d-42c5-a897-169ab05b5609"
      },
      "authored": "2021-08-03T13:04:53+00:00"
    }
  }, {
    "fullUrl": "urn:uuid:75d7b38f-170e-4a14-94dc-0b312d6545ac",
    "resource": {
      "resourceType": "Questionnaire",
      "id": "75d7b38f-170e-4a14-94dc-0b312d6545ac",
      "identifier": [ {
        "value": "1766749"
      } ],
      "version": "2021-08-03T13:04:53.000Z",
      "status": "active",
      "experimental": false,
      "date": "2021-08-03T13:04:53+00:00",
      "publisher": "User ID: '922' User name: 'AndrewJ.Walford' User skill set: 'T4'",
      "lastReviewDate": "2021-08-03",
      "contact": [ {
        "telecom": [ {
          "system": "phone",
          "value": "07798501130"
        } ]
      } ],
      "subjectType": [ "Patient" ]
    }
  }, {
    "fullUrl": "urn:uuid:65eb50d9-ffb1-4298-9337-d8e3a582407c",
    "resource": {
      "resourceType": "QuestionnaireResponse",
      "id": "65eb50d9-ffb1-4298-9337-d8e3a582407c",
      "identifier": {
        "value": "1766749"
      },
      "questionnaire": {
        "reference": "urn:uuid:105d8ef7-6cc5-48a4-a9cb-5e1aee9bbca8"
      },
      "status": "completed",
      "subject": {
        "reference": "urn:uuid:b9c0ef29-cb5b-4176-90ba-c50412b72ebb"
      },
      "context": {
        "reference": "urn:uuid:2fec8d32-c87d-42c5-a897-169ab05b5609"
      },
      "authored": "2021-08-03T13:04:53+00:00",
      "item": [ {
        "linkId": "N/A"
      } ]
    }
  }, {
    "fullUrl": "urn:uuid:105d8ef7-6cc5-48a4-a9cb-5e1aee9bbca8",
    "resource": {
      "resourceType": "Questionnaire",
      "id": "105d8ef7-6cc5-48a4-a9cb-5e1aee9bbca8",
      "identifier": [ {
        "value": "1766749"
      } ],
      "version": "2021-08-03T13:04:53.000Z",
      "status": "active",
      "experimental": false,
      "date": "2021-08-03T13:04:53+00:00",
      "publisher": "User ID: '922' User name: 'AndrewJ.Walford' User skill set: 'T4'",
      "lastReviewDate": "2021-08-03",
      "contact": [ {
        "telecom": [ {
          "system": "phone",
          "value": "07798501130"
        } ]
      } ],
      "subjectType": [ "Patient" ],
      "item": [ {
        "linkId": "1766749",
        "type": "choice",
        "required": true,
        "repeats": false,
        "option": [ {
          "valueString": ", Selected: false"
        } ]
      } ]
    }
  }, {
    "fullUrl": "urn:uuid:9f91543c-fb6b-449b-9dc4-716a16a5d098",
    "resource": {
      "resourceType": "QuestionnaireResponse",
      "id": "9f91543c-fb6b-449b-9dc4-716a16a5d098",
      "identifier": {
        "value": "1766749"
      },
      "questionnaire": {
        "reference": "urn:uuid:67aef215-e1b1-44b5-a270-e0536066c99e"
      },
      "status": "completed",
      "subject": {
        "reference": "urn:uuid:b9c0ef29-cb5b-4176-90ba-c50412b72ebb"
      },
      "context": {
        "reference": "urn:uuid:2fec8d32-c87d-42c5-a897-169ab05b5609"
      },
      "authored": "2021-08-03T13:04:53+00:00"
    }
  }, {
    "fullUrl": "urn:uuid:67aef215-e1b1-44b5-a270-e0536066c99e",
    "resource": {
      "resourceType": "Questionnaire",
      "id": "67aef215-e1b1-44b5-a270-e0536066c99e",
      "identifier": [ {
        "value": "1766749"
      } ],
      "version": "2021-08-03T13:04:53.000Z",
      "status": "active",
      "experimental": false,
      "date": "2021-08-03T13:04:53+00:00",
      "publisher": "User ID: '922' User name: 'AndrewJ.Walford' User skill set: 'T4'",
      "lastReviewDate": "2021-08-03",
      "contact": [ {
        "telecom": [ {
          "system": "phone",
          "value": "07798501130"
        } ]
      } ],
      "subjectType": [ "Patient" ]
    }
  }, {
    "fullUrl": "urn:uuid:60d7776f-e49d-4127-81ca-e1947e7cc00d",
    "resource": {
      "resourceType": "Observation",
      "id": "60d7776f-e49d-4127-81ca-e1947e7cc00d",
      "status": "final",
      "code": {
        "coding": [ {
          "system": "http://snomed.info/sct",
          "code": "33962009",
          "display": "Presenting complaint"
        } ]
      },
      "subject": {
        "reference": "urn:uuid:b9c0ef29-cb5b-4176-90ba-c50412b72ebb"
      },
      "context": {
        "reference": "urn:uuid:2fec8d32-c87d-42c5-a897-169ab05b5609"
      }
    }
  }, {
    "fullUrl": "urn:uuid:a5c6dc71-ed42-4519-b5b8-9acb99fa543d",
    "resource": {
      "resourceType": "PractitionerRole",
      "id": "a5c6dc71-ed42-4519-b5b8-9acb99fa543d",
      "practitioner": {
        "reference": "urn:uuid:c2bc21b9-d1ca-43ae-a6b3-07a2020a4148"
      },
      "organization": {
        "reference": "urn:uuid:355382ab-bb8b-4b88-b08b-8102250c30b8"
      },
      "code": [ {
        "coding": [ {
          "system": "2.16.840.1.113883.2.1.3.2.4.17.339",
          "code": "NP",
          "display": "Nurse Practitioner"
        } ]
      } ]
    }
  }, {
    "fullUrl": "urn:uuid:355382ab-bb8b-4b88-b08b-8102250c30b8",
    "resource": {
      "resourceType": "Organization",
      "id": "355382ab-bb8b-4b88-b08b-8102250c30b8",
      "identifier": [ {
        "value": "RX7"
      } ],
      "name": "NWAS 111"
    }
  }, {
    "fullUrl": "urn:uuid:3bb971bb-4757-4c73-bd93-7a510d26e115",
    "resource": {
      "resourceType": "RelatedPerson",
      "id": "3bb971bb-4757-4c73-bd93-7a510d26e115",
      "patient": {
        "reference": "urn:uuid:b9c0ef29-cb5b-4176-90ba-c50412b72ebb"
      },
      "relationship": {
        "coding": [ {
          "system": "http://hl7.org/fhir/v2/0131",
          "code": "C",
          "display": "Emergency Contact"
        } ]
      },
      "telecom": [ {
        "system": "phone",
        "value": "tel:07798501130"
      } ]
    }
  }, {
    "fullUrl": "urn:uuid:61228991-4879-4694-ab1d-f2010704cdf4",
    "resource": {
      "resourceType": "Device",
      "id": "61228991-4879-4694-ab1d-f2010704cdf4",
      "model": "111 Adaptor",
      "version": "1.0.0"
    }
  }, {
    "fullUrl": "urn:uuid:85348b0c-6404-4be5-ac4d-9574e00db27a",
    "resource": {
      "resourceType": "List",
      "id": "85348b0c-6404-4be5-ac4d-9574e00db27a",
      "status": "current",
      "mode": "working",
      "title": "111 Report List",
      "code": {
        "coding": [ {
          "system": "http://snomed.info/sct",
          "code": "225390008",
          "display": "Triage"
        } ]
      },
      "subject": {
        "reference": "urn:uuid:b9c0ef29-cb5b-4176-90ba-c50412b72ebb"
      },
      "encounter": {
        "reference": "urn:uuid:2fec8d32-c87d-42c5-a897-169ab05b5609"
      },
      "date": "2021-10-11T06:41:48+00:00",
      "source": {
        "reference": "urn:uuid:61228991-4879-4694-ab1d-f2010704cdf4"
      },
      "orderedBy": {
        "coding": [ {
          "system": "http://hl7.org/fhir/list-order",
          "code": "event-date",
          "display": "Sorted by Event Date"
        } ]
      },
      "entry": [ {
        "item": {
          "reference": "urn:uuid:60d7776f-e49d-4127-81ca-e1947e7cc00d"
        }
      }, {
        "item": {
          "reference": "urn:uuid:3bb971bb-4757-4c73-bd93-7a510d26e115"
        }
      }, {
        "item": {
          "reference": "urn:uuid:bf5bb550-ea46-4f43-a093-9179b7010f24"
        }
      }, {
        "item": {
          "reference": "urn:uuid:49970466-9321-4f9a-bef4-e034e49c3f97"
        }
      }, {
        "item": {
          "reference": "urn:uuid:355382ab-bb8b-4b88-b08b-8102250c30b8"
        }
      }, {
        "item": {
          "reference": "urn:uuid:c2bc21b9-d1ca-43ae-a6b3-07a2020a4148"
        }
      }, {
        "item": {
          "reference": "urn:uuid:3b4e5b1c-b9e7-49de-be46-a3dca468d99f"
        }
      }, {
        "item": {
          "reference": "urn:uuid:eff8f06b-3ba6-4436-ac89-b17c7ae4c5fd"
        }
      }, {
        "item": {
          "reference": "urn:uuid:84ab2360-6083-4d92-9863-99bee61dd901"
        }
      }, {
        "item": {
          "reference": "urn:uuid:b77ca5cb-ebc3-4c20-ba4f-9bb2009bcaa2"
        }
      }, {
        "item": {
          "reference": "urn:uuid:2aa22fe0-0f09-44ea-8e0b-8e86b99c4e1c"
        }
      }, {
        "item": {
          "reference": "urn:uuid:09cbf49b-c364-45ed-a87b-d07a001c1ac7"
        }
      }, {
        "item": {
          "reference": "urn:uuid:3c1df193-2f88-4e45-ac81-5cb76648d9b5"
        }
      }, {
        "item": {
          "reference": "urn:uuid:acbfbd51-ce54-4d8e-b2ea-865433fce0b7"
        }
      }, {
        "item": {
          "reference": "urn:uuid:69f49e07-389e-4516-83ab-6b6b9e5eb001"
        }
      }, {
        "item": {
          "reference": "urn:uuid:bbe06ebc-6850-4cb7-aff8-c295e0f82757"
        }
      }, {
        "item": {
          "reference": "urn:uuid:2b20bf9d-c91b-4a9f-997a-7dfd838b5a7b"
        }
      }, {
        "item": {
          "reference": "urn:uuid:65eb50d9-ffb1-4298-9337-d8e3a582407c"
        }
      }, {
        "item": {
          "reference": "urn:uuid:3fe074b2-c0f6-4f76-865a-271df3b284dc"
        }
      }, {
        "item": {
          "reference": "urn:uuid:ab42070f-55bf-4b53-80f8-f1fd65a5a8c4"
        }
      }, {
        "item": {
          "reference": "urn:uuid:9a83d8b6-7207-4c73-8b0c-c5ab60888f70"
        }
      }, {
        "item": {
          "reference": "urn:uuid:602a6c6f-0da0-4d8b-8c62-ed6e9d3875b1"
        }
      }, {
        "item": {
          "reference": "urn:uuid:3cdcf598-fdef-415a-bf2f-fa817b398d21"
        }
      }, {
        "item": {
          "reference": "urn:uuid:20506b14-579a-446a-a8dd-2b1ca6041e43"
        }
      }, {
        "item": {
          "reference": "urn:uuid:138e526e-6521-4d47-9e00-0483c5ffb1d5"
        }
      }, {
        "item": {
          "reference": "urn:uuid:6db3e01f-3cc4-401c-9b0a-9d76ce4f7583"
        }
      }, {
        "item": {
          "reference": "urn:uuid:7e5447a8-daf0-472e-8c8d-14372f089fcd"
        }
      }, {
        "item": {
          "reference": "urn:uuid:aca57425-9a5f-4645-bfab-f5768c08dbf7"
        }
      }, {
        "item": {
          "reference": "urn:uuid:9fc1300e-7046-48ae-9958-7d3d4f6b0012"
        }
      }, {
        "item": {
          "reference": "urn:uuid:bfe91a9d-b6bc-47dc-8862-7d68403b05c9"
        }
      }, {
        "item": {
          "reference": "urn:uuid:75d7b38f-170e-4a14-94dc-0b312d6545ac"
        }
      }, {
        "item": {
          "reference": "urn:uuid:73127809-ddac-4bdb-9232-7be59e3d189c"
        }
      }, {
        "item": {
          "reference": "urn:uuid:fa8f8000-fca4-4014-bd51-bfdab77aa249"
        }
      }, {
        "item": {
          "reference": "urn:uuid:4162bea8-e5ca-4054-bf81-e31aca659aee"
        }
      }, {
        "item": {
          "reference": "urn:uuid:0b39cbe2-27f9-4afa-9e31-c00828fe119e"
        }
      }, {
        "item": {
          "reference": "urn:uuid:c9491399-2a0d-464a-8ffc-b0d1221f0042"
        }
      }, {
        "item": {
          "reference": "urn:uuid:451750d6-9457-42e2-a229-eb1ca5a1fa0f"
        }
      }, {
        "item": {
          "reference": "urn:uuid:195dc813-15ca-4ba8-aa63-b815665dc662"
        }
      }, {
        "item": {
          "reference": "urn:uuid:1eff7f0e-c0a2-44af-8792-5a94dd7348ea"
        }
      }, {
        "item": {
          "reference": "urn:uuid:67c4dd9f-2b85-4e3a-82e0-ba22eb8527f5"
        }
      }, {
        "item": {
          "reference": "urn:uuid:699d8089-864f-4686-82f0-49053d0dcf43"
        }
      }, {
        "item": {
          "reference": "urn:uuid:b2e653f3-ac5c-47fe-9dfd-c70b98bab97c"
        }
      }, {
        "item": {
          "reference": "urn:uuid:e42da315-e3af-49d0-bace-adfb1509bb2a"
        }
      }, {
        "item": {
          "reference": "urn:uuid:e1fe07f3-17e8-456f-b6a2-edb95738697e"
        }
      }, {
        "item": {
          "reference": "urn:uuid:d3750392-a67b-447d-acbd-b99dcbefe570"
        }
      }, {
        "item": {
          "reference": "urn:uuid:105d8ef7-6cc5-48a4-a9cb-5e1aee9bbca8"
        }
      }, {
        "item": {
          "reference": "urn:uuid:0b5901bd-be89-4002-b0df-bcf982e39fda"
        }
      }, {
        "item": {
          "reference": "urn:uuid:9f91543c-fb6b-449b-9dc4-716a16a5d098"
        }
      }, {
        "item": {
          "reference": "urn:uuid:c23afc04-e288-420d-aff6-a51f9cf2a241"
        }
      }, {
        "item": {
          "reference": "urn:uuid:8502742e-33ae-4f00-9fc1-94963b3ffc2a"
        }
      }, {
        "item": {
          "reference": "urn:uuid:b37be628-7a80-4195-a668-ebf1a1883d80"
        }
      }, {
        "item": {
          "reference": "urn:uuid:99d675a4-1511-4f1a-a70b-7257b69b9b6b"
        }
      }, {
        "item": {
          "reference": "urn:uuid:a0056cee-66bd-4484-a74f-2fc029f91cf8"
        }
      }, {
        "item": {
          "reference": "urn:uuid:df84232d-838d-4f4c-937b-3aefd13e5113"
        }
      }, {
        "item": {
          "reference": "urn:uuid:590c25e6-9d58-4814-a5bf-da2034be91f4"
        }
      }, {
        "item": {
          "reference": "urn:uuid:f44aff2e-389a-401f-aaed-97b382f34c75"
        }
      }, {
        "item": {
          "reference": "urn:uuid:de080ee6-00cb-4a5c-8acd-f2bf41e1d3be"
        }
      }, {
        "item": {
          "reference": "urn:uuid:6225e91e-becb-4d26-bcb3-b9cfe0e59b0e"
        }
      }, {
        "item": {
          "reference": "urn:uuid:3bd8eaed-f184-4ad6-a1ca-779fab51f7cb"
        }
      }, {
        "item": {
          "reference": "urn:uuid:67aef215-e1b1-44b5-a270-e0536066c99e"
        }
      }, {
        "item": {
          "reference": "urn:uuid:6792a5d6-d838-4896-ab9f-fb189d00df45"
        }
      }, {
        "item": {
          "reference": "urn:uuid:2296d974-e25c-466a-bf8e-1c8215aee95f"
        }
      }, {
        "item": {
          "reference": "urn:uuid:611e55b2-5c7f-4b07-bf6f-aa2c9e67ffcf"
        }
      }, {
        "item": {
          "reference": "urn:uuid:84fd3a71-fe57-4fa9-9326-8dfd481d0adf"
        }
      }, {
        "item": {
          "reference": "urn:uuid:15c3339a-97d5-4aa7-a537-7baab9fb93e6"
        }
      }, {
        "item": {
          "reference": "urn:uuid:808f260c-efd1-4fd0-80e6-f9736d614af3"
        }
      }, {
        "item": {
          "reference": "urn:uuid:2662054d-25ac-4ee9-9d89-4da996cf18ec"
        }
      }, {
        "item": {
          "reference": "urn:uuid:bdd90b6a-ca43-431f-8939-07d014a77fa1"
        }
      }, {
        "item": {
          "reference": "urn:uuid:3f7c0060-92e6-465b-a48f-9e0e230a6e99"
        }
      }, {
        "item": {
          "reference": "urn:uuid:266bd0aa-007a-4be1-899a-3bc7f68b43f3"
        }
      }, {
        "item": {
          "reference": "urn:uuid:d15119fd-b351-4011-9397-337b9ab68ccd"
        }
      }, {
        "item": {
          "reference": "urn:uuid:c700a0cf-b70b-477b-8247-a1fe71f26891"
        }
      }, {
        "item": {
          "reference": "urn:uuid:9c0326dc-66a2-49c2-8ed0-01cda99bf21f"
        }
      } ]
    }
  } ]
}