{
  "resourceType": "Bundle",
  "identifier": {
    "type": {
      "text": "ClinicalDocument VersionNumber"
    },
    "value": "1"
  },
  "type": "message",
  "entry": [ {
    "fullUrl": "urn:uuid:B447241A-CEBD-41DF-AC62-46FE8022876F",
    "resource": {
      "resourceType": "MessageHeader",
      "id": "B447241A-CEBD-41DF-AC62-46FE8022876F",
      "event": {
        "system": "https://fhir.nhs.uk/STU3/CodeSystem/EventType-1",
        "code": "referral-1",
        "display": "Referral"
      },
      "destination": [ {
        "endpoint": "urn:nhs-uk:addressing:ods:Y02837001:DOSServiceID:1340268940"
      } ],
      "timestamp": "2021-08-03T13:04:53.000+00:00",
      "source": {
        "name": "NHS 111 Adaptor",
        "endpoint": "http://localhost:8080/report"
      },
      "reason": {
        "coding": [ {
          "system": "urn:nhs-itk:ns:201005:interaction",
          "code": "urn:nhs-itk:interaction:primaryOutofHourRecipientNHS111CDADocument-v2-0"
        } ]
      }
    }
  }, {
    "fullUrl": "urn:uuid:0270882a-086c-4d2c-8114-aa088ce76d9e",
    "resource": {
      "resourceType": "Encounter",
      "id": "0270882a-086c-4d2c-8114-aa088ce76d9e",
      "identifier": [ {
        "system": "2.16.840.1.113883.2.1.3.2.4.18.49",
        "value": "0163118D-0756-4A98-8F34-458721C6481F"
      }, {
        "system": "2.16.840.1.113883.2.1.3.2.4.18.34",
        "value": "1766749"
      }, {
        "system": "2.16.840.1.113883.2.1.3.2.4.18.35",
        "value": "1766749"
      } ],
      "status": "finished",
      "type": [ {
        "text": "111 Encounter Referral"
      } ],
      "subject": {
        "reference": "urn:uuid:66460de9-757a-47f6-adab-7f0ca00219a7"
      },
      "participant": [ {
        "type": [ {
          "coding": [ {
            "system": "http://hl7.org/fhir/ValueSet/encounter-participant-type",
            "code": "PPRF",
            "display": "Author"
          } ]
        } ],
        "individual": {
          "reference": "urn:uuid:81cebd2a-4935-4e3d-9de0-354bf3bb5c7f"
        }
      } ],
      "period": {
        "start": "2021-08-03T13:04:53+00:00"
      },
      "location": [ {
        "location": {
          "reference": "urn:uuid:c5405795-bc9b-41dc-94ef-7a503755c147"
        },
        "status": "completed"
      } ],
      "serviceProvider": {
        "reference": "urn:uuid:d71a795a-8924-4d8b-952a-946703ad1a7e"
      }
    }
  }, {
    "fullUrl": "urn:uuid:d71a795a-8924-4d8b-952a-946703ad1a7e",
    "resource": {
      "resourceType": "Organization",
      "id": "d71a795a-8924-4d8b-952a-946703ad1a7e",
      "active": true,
      "type": [ {
        "text": "CST"
      } ],
      "name": "NWAS 111"
    }
  }, {
    "fullUrl": "urn:uuid:81cebd2a-4935-4e3d-9de0-354bf3bb5c7f",
    "resource": {
      "resourceType": "Practitioner",
      "id": "81cebd2a-4935-4e3d-9de0-354bf3bb5c7f",
      "active": true,
      "name": [ {
        "text": "AndrewJ.Walford"
      } ]
    }
  }, {
    "fullUrl": "urn:uuid:c5405795-bc9b-41dc-94ef-7a503755c147",
    "resource": {
      "resourceType": "Location",
      "id": "c5405795-bc9b-41dc-94ef-7a503755c147",
      "address": {
        "type": "physical",
        "line": [ "Fleetwood Health & Wellbeing Centre", "Dock Street", "Fleetwood" ],
        "postalCode": "FY7 6HP"
      }
    }
  }, {
    "fullUrl": "urn:uuid:66460de9-757a-47f6-adab-7f0ca00219a7",
    "resource": {
      "resourceType": "Patient",
      "id": "66460de9-757a-47f6-adab-7f0ca00219a7",
      "active": true,
      "name": [ {
        "use": "official",
        "family": "Please Disregard",
        "given": [ "Dx10 Test" ]
      } ],
      "telecom": [ {
        "system": "phone",
        "value": "tel:07798501130",
        "use": "mobile"
      }, {
        "system": "phone",
        "value": "tel:07798501130"
      } ],
      "gender": "male",
      "birthDate": "1980-01-01",
      "address": [ {
        "use": "home",
        "line": [ "Fleetwood Health & Wellbeing Centre", "Dock Street", "Fleetwood" ],
        "postalCode": "FY7 6HP"
      }, {
        "type": "physical",
        "line": [ "Fleetwood Health & Wellbeing Centre", "Dock Street", "Fleetwood" ],
        "postalCode": "FY7 6HP"
      } ]
    }
  }, {
    "fullUrl": "urn:uuid:015a3bd7-6bb5-4c00-a2ab-1e14de5f57b0",
    "resource": {
      "resourceType": "HealthcareService",
      "id": "015a3bd7-6bb5-4c00-a2ab-1e14de5f57b0",
      "active": true,
      "providedBy": {
        "reference": "urn:uuid:247a1b4f-ee33-46bc-88c2-60aea7bba81a"
      },
      "location": [ {
        "reference": "urn:uuid:5a70d45c-7e07-4c78-a052-2d5e987837e8"
      } ],
      "name": "Urgent Treatment Centre - Minor Injury Unit Same Day Health Cent",
      "telecom": [ {
        "system": "phone",
        "value": "tel:03001231144NP:01253955551",
        "use": "work"
      } ]
    }
  }, {
    "fullUrl": "urn:uuid:5a70d45c-7e07-4c78-a052-2d5e987837e8",
    "resource": {
      "resourceType": "Location",
      "id": "5a70d45c-7e07-4c78-a052-2d5e987837e8",
      "telecom": [ {
        "system": "phone",
        "value": "tel:03001231144NP:01253955551",
        "use": "work"
      } ],
      "address": {
        "use": "work",
        "line": [ "x", "x", "x" ],
        "postalCode": "FY7 6HP"
      },
      "managingOrganization": {
        "reference": "urn:uuid:247a1b4f-ee33-46bc-88c2-60aea7bba81a"
      }
    }
  }, {
    "fullUrl": "urn:uuid:247a1b4f-ee33-46bc-88c2-60aea7bba81a",
    "resource": {
      "resourceType": "Organization",
      "id": "247a1b4f-ee33-46bc-88c2-60aea7bba81a",
      "identifier": [ {
        "value": "Y02837001"
      } ],
      "type": [ {
        "coding": [ {
          "code": "PRCP",
          "display": "Urgent Treatment Centre - Minor Injury Unit Same Day Health Cent"
        } ]
      } ],
      "name": "Urgent Treatment Centre - Minor Injury Unit Same Day Health Cent"
    }
  }, {
    "fullUrl": "urn:uuid:4e43931a-5ade-468b-aa2c-6b0ea5db5c7c",
    "resource": {
      "resourceType": "ReferralRequest",
      "id": "4e43931a-5ade-468b-aa2c-6b0ea5db5c7c",
      "status": "active",
      "intent": "plan",
      "priority": "routine",
      "subject": {
        "reference": "urn:uuid:66460de9-757a-47f6-adab-7f0ca00219a7"
      },
      "context": {
        "reference": "urn:uuid:0270882a-086c-4d2c-8114-aa088ce76d9e"
      },
      "occurrencePeriod": {
        "start": "2021-10-01T07:34:01+00:00",
        "end": "2021-10-01T08:34:01+00:00"
      },
      "authoredOn": "2021-08-03T12:35:22+00:00",
      "requester": {
        "agent": {
          "reference": "urn:uuid:a0977b44-ff12-4d83-8153-6a621a4fec71"
        },
        "onBehalfOf": {
          "reference": "urn:uuid:d71a795a-8924-4d8b-952a-946703ad1a7e"
        }
      },
      "recipient": [ {
        "reference": "urn:uuid:06a822a9-886d-4726-a48e-412e97f5b7c0"
      }, {
        "reference": "urn:uuid:015a3bd7-6bb5-4c00-a2ab-1e14de5f57b0"
      } ],
      "reasonReference": [ {
        "reference": "urn:uuid:fa53f55f-adbe-4676-a741-39ddc74b6e57"
      } ],
      "supportingInfo": [ {
        "reference": "urn:uuid:dba038d0-1b67-4b8c-92e6-d529a44c5a2e"
      } ]
    }
  }, {
    "fullUrl": "urn:uuid:dba038d0-1b67-4b8c-92e6-d529a44c5a2e",
    "resource": {
      "resourceType": "ProcedureRequest",
      "id": "dba038d0-1b67-4b8c-92e6-d529a44c5a2e",
      "status": "active",
      "intent": "plan",
      "priority": "routine",
      "doNotPerform": false,
      "code": {
        "coding": [ {
          "system": "2.16.840.1.113883.2.1.3.2.4.17.325",
          "code": "Dx10",
          "display": "Must Contact A Local Service For A Non-urgent Appointment"
        } ]
      },
      "subject": {
        "reference": "urn:uuid:66460de9-757a-47f6-adab-7f0ca00219a7"
      },
      "occurrencePeriod": {
        "start": "2021-10-01T07:34:01+00:00",
        "end": "2021-10-01T08:34:01+00:00"
      },
      "reasonReference": [ {
        "reference": "urn:uuid:fa53f55f-adbe-4676-a741-39ddc74b6e57"
      } ]
    }
  }, {
    "fullUrl": "urn:uuid:06a822a9-886d-4726-a48e-412e97f5b7c0",
    "resource": {
      "resourceType": "Practitioner",
      "id": "06a822a9-886d-4726-a48e-412e97f5b7c0",
      "active": true,
      "telecom": [ {
        "system": "phone",
        "value": "tel:03001231144NP:01253955551",
        "use": "work"
      } ],
      "address": [ {
        "type": "physical",
        "line": [ "x", "x", "x" ],
        "postalCode": "FY7 6HP"
      } ]
    }
  }, {
    "fullUrl": "urn:uuid:8d68e054-5edd-454c-972b-546505312bea",
    "resource": {
      "resourceType": "Composition",
      "id": "8d68e054-5edd-454c-972b-546505312bea",
      "identifier": {
        "use": "usual",
        "value": "DEF337D1-08BF-4631-B11E-28F64349A031"
      },
      "status": "final",
      "type": {
        "coding": [ {
          "system": "http://snomed.info/sct",
          "code": "371531000",
          "display": "Report of clinical encounter (record artifact)"
        } ]
      },
      "subject": {
        "reference": "urn:uuid:66460de9-757a-47f6-adab-7f0ca00219a7"
      },
      "encounter": {
        "reference": "urn:uuid:0270882a-086c-4d2c-8114-aa088ce76d9e"
      },
      "date": "2021-10-01T07:34:01+00:00",
      "author": [ {
        "reference": "urn:uuid:81cebd2a-4935-4e3d-9de0-354bf3bb5c7f"
      } ],
      "title": "111 Report",
      "confidentiality": "N",
      "section": [ {
        "section": [ {
          "title": "Patient's Reported Condition",
          "text": {
            "status": "generated",
            "div": "<div xmlns=\"http://www.w3.org/1999/xhtml\">**test From Nwas111 - No Action Required - Please Disregard Test</div>"
          }
        }, {
          "title": "Case Summary",
          "text": {
            "status": "generated",
            "div": "<div xmlns=\"http://www.w3.org/1999/xhtml\">&lt;content styleCode=&quot;bold&quot;&gt;Pathways Disposition: Dx10&lt;/content&gt;\n                                                    &lt;br/&gt;\n                                                    &lt;content&gt;Must Contact A Local Service For A Non-urgent Appointment User comment - '**Test From NWAS111 - No Action required - Please Disregard Test case**'&lt;/content&gt;\n                                                    &lt;br/&gt;\n                                                    &lt;br/&gt;\n                                                    &lt;content styleCode=&quot;bold&quot;&gt;Consultation Summary:&lt;/content&gt;\n                                                    &lt;br/&gt;\n                                                    &lt;content&gt;Illness - '**Test From NWAS111 - No Action required - Please Disregard Test case**'&lt;/content&gt;\n                                                    &lt;br/&gt;\n                                                    &lt;content&gt;Warm to touch&lt;/content&gt;\n                                                    &lt;br/&gt;\n                                                    &lt;br/&gt;\n                                                    &lt;content styleCode=&quot;bold&quot;&gt;Pathways Assessment:&lt;/content&gt;\n                                                    &lt;br/&gt;\n                                                    &lt;content&gt;An injury or health problem was the reason for the contact.&lt;/content&gt;\n                                                    &lt;br/&gt;\n                                                    &lt;content&gt;User comment - '**Test From NWAS111 - No Action required - Please Disregard Test case**'&lt;/content&gt;\n                                                    &lt;br/&gt;\n                                                    &lt;content&gt;Heavy bleeding had not occurred in the previous 2 hours.&lt;/content&gt;\n                                                    &lt;br/&gt;\n                                                    &lt;content&gt;An illness or health problem was the main problem.&lt;/content&gt;\n                                                    &lt;br/&gt;\n                                                    &lt;content&gt;User comment - '**Test From NWAS111 - No Action required - Please Disregard Test case**'&lt;/content&gt;\n                                                    &lt;br/&gt;\n                                                    &lt;content&gt;The individual was not fighting for breath.&lt;/content&gt;\n                                                    &lt;br/&gt;\n                                                    &lt;content&gt;The main reason for the assessment was not an allergic reaction, heart attack, chest/upper back pain, probable stroke, recent fit/seizure or suicide attempt.&lt;/content&gt;\n                                                    &lt;br/&gt;\n                                                    &lt;content&gt;The main reason for contact was not new confusion, declared diabetic hypo/hyperglycaemia, or ICD shock.&lt;/content&gt;\n                                                    &lt;br/&gt;\n                                                    &lt;content&gt;The skin on the torso felt normal, warm or hot.&lt;/content&gt;\n                                                    &lt;br/&gt;\n                                                    &lt;content&gt;Pathway selected - Difficulty Passing Urine&lt;/content&gt;\n                                                    &lt;br/&gt;\n                                                    &lt;content&gt;The individual was able to carry out most or all normal activities.&lt;/content&gt;\n                                                    &lt;br/&gt;\n                                                    &lt;content&gt;There was no new loss of bowel control or leg movement and no saddle or lower limb paraesthesia.&lt;/content&gt;\n                                                    &lt;br/&gt;\n                                                    &lt;content&gt;There was no inability to pass urine over the last 12 hours.&lt;/content&gt;\n                                                    &lt;br/&gt;\n                                                    &lt;content&gt;There was no new or worsening confusion.&lt;/content&gt;\n                                                    &lt;br/&gt;\n                                                    &lt;content&gt;Breathing harder or faster when doing nothing was not described.&lt;/content&gt;\n                                                    &lt;br/&gt;\n                                                    &lt;content&gt;There was no spinal pain.&lt;/content&gt;\n                                                    &lt;br/&gt;\n                                                    &lt;content&gt;The pain was not getting worse.&lt;/content&gt;\n                                                    &lt;br/&gt;\n                                                    &lt;content&gt;There was no fever at the time of assessment or within the previous 12 hours.&lt;/content&gt;\n                                                    &lt;br/&gt;\n                                                    &lt;content&gt;The individual had not experienced a back injury within the previous 4 weeks.&lt;/content&gt;\n                                                    &lt;br/&gt;\n                                                    &lt;content&gt;Medication type or dosage had not changed within the previous 2 weeks.&lt;/content&gt;\n                                                    &lt;br/&gt;\n                                                    &lt;content&gt;User comment - 'Urgent Treatment Centre - Same Day Health Centre - Fleetwood'&lt;/content&gt;\n                                                    &lt;br/&gt;\n                                                    &lt;br/&gt;\n                                                    &lt;content styleCode=&quot;bold&quot;&gt;Advice Given:&lt;/content&gt;\n                                                    &lt;br/&gt;\n                                                    &lt;content&gt;Unless advised not to, paracetamol may be used to relieve pain or fever. Follow the instructions in the pack. If in doubt ask a pharmacist.&lt;/content&gt;\n                                                    &lt;br/&gt;\n                                                    &lt;br/&gt;</div>"
          }
        } ]
      }, {
        "title": "ReferralRequest",
        "entry": [ {
          "reference": "urn:uuid:4e43931a-5ade-468b-aa2c-6b0ea5db5c7c"
        } ]
      }, {
        "title": "QuestionnaireResponse",
        "entry": [ {
          "reference": "urn:uuid:0e0bc89c-a733-4b43-8a2d-3d44b2bc308c"
        } ]
      }, {
        "title": "QuestionnaireResponse",
        "entry": [ {
          "reference": "urn:uuid:bb191585-4001-41e7-85cf-79f561405762"
        } ]
      }, {
        "title": "QuestionnaireResponse",
        "entry": [ {
          "reference": "urn:uuid:b39d31b8-5b26-4912-b00b-a62a919929e2"
        } ]
      }, {
        "title": "QuestionnaireResponse",
        "entry": [ {
          "reference": "urn:uuid:d9d4b7cb-f21a-4bec-ac50-ee002c851518"
        } ]
      }, {
        "title": "QuestionnaireResponse",
        "entry": [ {
          "reference": "urn:uuid:9f20b180-9b86-494c-8637-86e2d0b0ed4f"
        } ]
      }, {
        "title": "QuestionnaireResponse",
        "entry": [ {
          "reference": "urn:uuid:24da5306-088c-4a18-afca-e83214bbd34d"
        } ]
      }, {
        "title": "QuestionnaireResponse",
        "entry": [ {
          "reference": "urn:uuid:1a6ffb7a-6fb0-4568-bb99-2506ae04beb3"
        } ]
      }, {
        "title": "QuestionnaireResponse",
        "entry": [ {
          "reference": "urn:uuid:69b1dcb3-fe4e-41d5-89f8-4d059584a6a7"
        } ]
      }, {
        "title": "QuestionnaireResponse",
        "entry": [ {
          "reference": "urn:uuid:94f1964f-2e6a-49ed-a0fb-81d984345cc2"
        } ]
      }, {
        "title": "QuestionnaireResponse",
        "entry": [ {
          "reference": "urn:uuid:3e9ef283-4c6b-42ce-a736-0d100ca90535"
        } ]
      }, {
        "title": "QuestionnaireResponse",
        "entry": [ {
          "reference": "urn:uuid:723c2a1a-1d33-48df-9d15-3bb86028ef51"
        } ]
      }, {
        "title": "QuestionnaireResponse",
        "entry": [ {
          "reference": "urn:uuid:3d45a7c5-38e4-4058-9ea0-c20afef89418"
        } ]
      }, {
        "title": "QuestionnaireResponse",
        "entry": [ {
          "reference": "urn:uuid:f7fd372f-20f7-45c6-bd6d-03b880a6dd50"
        } ]
      }, {
        "title": "QuestionnaireResponse",
        "entry": [ {
          "reference": "urn:uuid:9b5f9d59-2e1e-44dd-a0b9-a42dc4953ba5"
        } ]
      }, {
        "title": "QuestionnaireResponse",
        "entry": [ {
          "reference": "urn:uuid:36394866-9844-4303-9551-8205ee1e3d81"
        } ]
      }, {
        "title": "QuestionnaireResponse",
        "entry": [ {
          "reference": "urn:uuid:45343fdc-ed85-4681-ad38-968fc2e96368"
        } ]
      }, {
        "title": "QuestionnaireResponse",
        "entry": [ {
          "reference": "urn:uuid:5bf4dd3f-1ccf-4810-8d70-8cce1964e23f"
        } ]
      }, {
        "title": "QuestionnaireResponse",
        "entry": [ {
          "reference": "urn:uuid:7ec6847b-6b18-478b-8fc1-b4d2c38d618d"
        } ]
      }, {
        "title": "QuestionnaireResponse",
        "entry": [ {
          "reference": "urn:uuid:7c0a86d9-6a5b-4729-bafe-f929412226c2"
        } ]
      }, {
        "title": "QuestionnaireResponse",
        "entry": [ {
          "reference": "urn:uuid:02277f92-3756-49e8-9f70-6efbda746064"
        } ]
      }, {
        "title": "QuestionnaireResponse",
        "entry": [ {
          "reference": "urn:uuid:c0bec2b0-deb4-45f4-b936-0e4e0f3c86d7"
        } ]
      }, {
        "title": "QuestionnaireResponse",
        "entry": [ {
          "reference": "urn:uuid:98872bb6-d25f-40de-824e-ad7fcee4d34b"
        } ]
      }, {
        "title": "QuestionnaireResponse",
        "entry": [ {
          "reference": "urn:uuid:787051a5-76cc-4645-a3c8-7b7254352cb8"
        } ]
      }, {
        "title": "QuestionnaireResponse",
        "entry": [ {
          "reference": "urn:uuid:4babd098-4fb8-4476-a4b1-a57c36e7c048"
        } ]
      }, {
        "title": "QuestionnaireResponse",
        "entry": [ {
          "reference": "urn:uuid:20dfcb85-e9b3-413e-8712-3914f7d90d5a"
        } ]
      }, {
        "title": "QuestionnaireResponse",
        "entry": [ {
          "reference": "urn:uuid:a61e07a1-17fa-4c32-a139-ef12ca90835e"
        } ]
      }, {
        "title": "QuestionnaireResponse",
        "entry": [ {
          "reference": "urn:uuid:ac4adfaf-3762-4961-b300-6a9863971a36"
        } ]
      }, {
        "title": "QuestionnaireResponse",
        "entry": [ {
          "reference": "urn:uuid:0d879afe-0aa0-4f71-a4b3-92b23a7d7e73"
        } ]
      }, {
        "title": "QuestionnaireResponse",
        "entry": [ {
          "reference": "urn:uuid:d1e35126-a8d1-47ad-ae7c-ccb94fe40fd4"
        } ]
      }, {
        "title": "QuestionnaireResponse",
        "entry": [ {
          "reference": "urn:uuid:d8a7b58a-d464-47fc-aa4e-6b5c4f24a71b"
        } ]
      }, {
        "title": "QuestionnaireResponse",
        "entry": [ {
          "reference": "urn:uuid:83447703-bf37-40e4-a5ec-afd8592eccbc"
        } ]
      }, {
        "title": "QuestionnaireResponse",
        "entry": [ {
          "reference": "urn:uuid:acc75b6f-3845-43d3-97f4-d9ed89688f4a"
        } ]
      } ]
    }
  }, {
    "fullUrl": "urn:uuid:debb51e4-f948-4a7b-a149-8a9651962b13",
    "resource": {
      "resourceType": "Consent",
      "id": "debb51e4-f948-4a7b-a149-8a9651962b13",
      "identifier": {
        "use": "usual",
        "value": "DEF337D1-08BF-4631-B11E-28F64349A031"
      },
      "status": "active",
      "patient": {
        "reference": "urn:uuid:66460de9-757a-47f6-adab-7f0ca00219a7"
      },
      "period": {
        "start": "2021-08-03T13:04:53+00:00"
      },
      "consentingParty": [ {
        "reference": "urn:uuid:66460de9-757a-47f6-adab-7f0ca00219a7"
      } ],
      "action": [ {
        "coding": [ {
          "system": "http://snomed.info/sct",
          "code": "425691002",
          "display": "Consent given for electronic record sharing"
        } ],
        "text": "Consent given for electronic record sharing"
      } ],
      "organization": [ {
        "reference": "urn:uuid:d71a795a-8924-4d8b-952a-946703ad1a7e"
      } ],
      "policyRule": "http://hl7.org/fhir/ConsentPolicy/opt-out",
      "data": [ {
        "meaning": "related",
        "reference": {
          "reference": "urn:uuid:0270882a-086c-4d2c-8114-aa088ce76d9e"
        }
      } ]
    }
  }, {
    "fullUrl": "urn:uuid:fa53f55f-adbe-4676-a741-39ddc74b6e57",
    "resource": {
      "resourceType": "Condition",
      "id": "fa53f55f-adbe-4676-a741-39ddc74b6e57",
      "clinicalStatus": "active",
      "verificationStatus": "unknown",
      "subject": {
        "reference": "urn:uuid:66460de9-757a-47f6-adab-7f0ca00219a7"
      },
      "context": {
        "reference": "urn:uuid:0270882a-086c-4d2c-8114-aa088ce76d9e"
      },
      "evidence": [ {
        "detail": [ {
          "reference": "urn:uuid:0e0bc89c-a733-4b43-8a2d-3d44b2bc308c"
        } ]
      }, {
        "detail": [ {
          "reference": "urn:uuid:bb191585-4001-41e7-85cf-79f561405762"
        } ]
      }, {
        "detail": [ {
          "reference": "urn:uuid:b39d31b8-5b26-4912-b00b-a62a919929e2"
        } ]
      }, {
        "detail": [ {
          "reference": "urn:uuid:d9d4b7cb-f21a-4bec-ac50-ee002c851518"
        } ]
      }, {
        "detail": [ {
          "reference": "urn:uuid:9f20b180-9b86-494c-8637-86e2d0b0ed4f"
        } ]
      }, {
        "detail": [ {
          "reference": "urn:uuid:24da5306-088c-4a18-afca-e83214bbd34d"
        } ]
      }, {
        "detail": [ {
          "reference": "urn:uuid:1a6ffb7a-6fb0-4568-bb99-2506ae04beb3"
        } ]
      }, {
        "detail": [ {
          "reference": "urn:uuid:69b1dcb3-fe4e-41d5-89f8-4d059584a6a7"
        } ]
      }, {
        "detail": [ {
          "reference": "urn:uuid:94f1964f-2e6a-49ed-a0fb-81d984345cc2"
        } ]
      }, {
        "detail": [ {
          "reference": "urn:uuid:3e9ef283-4c6b-42ce-a736-0d100ca90535"
        } ]
      }, {
        "detail": [ {
          "reference": "urn:uuid:723c2a1a-1d33-48df-9d15-3bb86028ef51"
        } ]
      }, {
        "detail": [ {
          "reference": "urn:uuid:3d45a7c5-38e4-4058-9ea0-c20afef89418"
        } ]
      }, {
        "detail": [ {
          "reference": "urn:uuid:f7fd372f-20f7-45c6-bd6d-03b880a6dd50"
        } ]
      }, {
        "detail": [ {
          "reference": "urn:uuid:9b5f9d59-2e1e-44dd-a0b9-a42dc4953ba5"
        } ]
      }, {
        "detail": [ {
          "reference": "urn:uuid:36394866-9844-4303-9551-8205ee1e3d81"
        } ]
      }, {
        "detail": [ {
          "reference": "urn:uuid:45343fdc-ed85-4681-ad38-968fc2e96368"
        } ]
      }, {
        "detail": [ {
          "reference": "urn:uuid:5bf4dd3f-1ccf-4810-8d70-8cce1964e23f"
        } ]
      }, {
        "detail": [ {
          "reference": "urn:uuid:7ec6847b-6b18-478b-8fc1-b4d2c38d618d"
        } ]
      }, {
        "detail": [ {
          "reference": "urn:uuid:7c0a86d9-6a5b-4729-bafe-f929412226c2"
        } ]
      }, {
        "detail": [ {
          "reference": "urn:uuid:02277f92-3756-49e8-9f70-6efbda746064"
        } ]
      }, {
        "detail": [ {
          "reference": "urn:uuid:c0bec2b0-deb4-45f4-b936-0e4e0f3c86d7"
        } ]
      }, {
        "detail": [ {
          "reference": "urn:uuid:98872bb6-d25f-40de-824e-ad7fcee4d34b"
        } ]
      }, {
        "detail": [ {
          "reference": "urn:uuid:787051a5-76cc-4645-a3c8-7b7254352cb8"
        } ]
      }, {
        "detail": [ {
          "reference": "urn:uuid:4babd098-4fb8-4476-a4b1-a57c36e7c048"
        } ]
      }, {
        "detail": [ {
          "reference": "urn:uuid:20dfcb85-e9b3-413e-8712-3914f7d90d5a"
        } ]
      }, {
        "detail": [ {
          "reference": "urn:uuid:a61e07a1-17fa-4c32-a139-ef12ca90835e"
        } ]
      }, {
        "detail": [ {
          "reference": "urn:uuid:ac4adfaf-3762-4961-b300-6a9863971a36"
        } ]
      }, {
        "detail": [ {
          "reference": "urn:uuid:0d879afe-0aa0-4f71-a4b3-92b23a7d7e73"
        } ]
      }, {
        "detail": [ {
          "reference": "urn:uuid:d1e35126-a8d1-47ad-ae7c-ccb94fe40fd4"
        } ]
      }, {
        "detail": [ {
          "reference": "urn:uuid:d8a7b58a-d464-47fc-aa4e-6b5c4f24a71b"
        } ]
      }, {
        "detail": [ {
          "reference": "urn:uuid:83447703-bf37-40e4-a5ec-afd8592eccbc"
        } ]
      }, {
        "detail": [ {
          "reference": "urn:uuid:acc75b6f-3845-43d3-97f4-d9ed89688f4a"
        } ]
      } ]
    }
  }, {
    "fullUrl": "urn:uuid:0e0bc89c-a733-4b43-8a2d-3d44b2bc308c",
    "resource": {
      "resourceType": "QuestionnaireResponse",
      "id": "0e0bc89c-a733-4b43-8a2d-3d44b2bc308c",
      "identifier": {
        "value": "1766749"
      },
      "questionnaire": {
        "reference": "urn:uuid:f73ba1e3-a9c8-46b5-b1ee-f582dd10df26"
      },
      "status": "completed",
      "subject": {
        "reference": "urn:uuid:66460de9-757a-47f6-adab-7f0ca00219a7"
      },
      "context": {
        "reference": "urn:uuid:0270882a-086c-4d2c-8114-aa088ce76d9e"
      },
      "authored": "2021-08-03T13:04:53+00:00",
      "item": [ {
        "linkId": "Tx220109",
        "text": "What is the reason for the contact?",
        "answer": [ {
          "valueString": "an injury or other health problem"
        } ]
      } ]
    }
  }, {
    "fullUrl": "urn:uuid:f73ba1e3-a9c8-46b5-b1ee-f582dd10df26",
    "resource": {
      "resourceType": "Questionnaire",
      "id": "f73ba1e3-a9c8-46b5-b1ee-f582dd10df26",
      "identifier": [ {
        "value": "1766749"
      } ],
      "version": "2021-08-03T13:04:53.000Z",
      "status": "active",
      "experimental": false,
      "date": "2021-08-03T13:04:53+00:00",
      "publisher": "User ID: '922' User name: 'AndrewJ.Walford' User skill set: 'T4'",
      "lastReviewDate": "2021-08-03",
      "contact": [ {
        "telecom": [ {
          "system": "phone",
          "value": "07798501130"
        } ]
      } ],
      "subjectType": [ "Patient" ],
      "item": [ {
        "linkId": "1766749",
        "prefix": "5",
        "text": "What is the reason for the contact?",
        "type": "choice",
        "required": true,
        "repeats": false,
        "option": [ {
          "valueString": "an injury or other health problem, Selected: true"
        }, {
          "valueString": "a need to access another healthcare service, Selected: false"
        }, {
          "valueString": "a healthcare professional requesting contact with another clinician, Selected: false"
        }, {
          "valueString": "a report of results or tests, Selected: false"
        }, {
          "valueString": "more, Selected: false"
        } ]
      } ]
    }
  }, {
    "fullUrl": "urn:uuid:bb191585-4001-41e7-85cf-79f561405762",
    "resource": {
      "resourceType": "QuestionnaireResponse",
      "id": "bb191585-4001-41e7-85cf-79f561405762",
      "identifier": {
        "value": "1766749"
      },
      "questionnaire": {
        "reference": "urn:uuid:a183a07b-75bf-414a-9bd8-8f51d003e7b5"
      },
      "status": "completed",
      "subject": {
        "reference": "urn:uuid:66460de9-757a-47f6-adab-7f0ca00219a7"
      },
      "context": {
        "reference": "urn:uuid:0270882a-086c-4d2c-8114-aa088ce76d9e"
      },
      "authored": "2021-08-03T13:04:53+00:00",
      "item": [ {
        "linkId": "Tx221788",
        "text": "STRING:to'ImmediateThreatsToLife(SPA/OOHversion)'-'ABC'menu",
        "answer": [ {
          "valueString": "\"\"present\"\""
        } ]
      } ]
    }
  }, {
    "fullUrl": "urn:uuid:a183a07b-75bf-414a-9bd8-8f51d003e7b5",
    "resource": {
      "resourceType": "Questionnaire",
      "id": "a183a07b-75bf-414a-9bd8-8f51d003e7b5",
      "identifier": [ {
        "value": "1766749"
      } ],
      "version": "2021-08-03T13:04:53.000Z",
      "status": "active",
      "experimental": false,
      "date": "2021-08-03T13:04:53+00:00",
      "publisher": "User ID: '922' User name: 'AndrewJ.Walford' User skill set: 'T4'",
      "lastReviewDate": "2021-08-03",
      "contact": [ {
        "telecom": [ {
          "system": "phone",
          "value": "07798501130"
        } ]
      } ],
      "subjectType": [ "Patient" ],
      "item": [ {
        "linkId": "1766749",
        "prefix": "500",
        "text": "STRING:to'ImmediateThreatsToLife(SPA/OOHversion)'-'ABC'menu",
        "type": "choice",
        "required": true,
        "repeats": false,
        "option": [ {
          "valueString": "\"\"present\"\", Selected: true"
        } ]
      } ]
    }
  }, {
    "fullUrl": "urn:uuid:b39d31b8-5b26-4912-b00b-a62a919929e2",
    "resource": {
      "resourceType": "QuestionnaireResponse",
      "id": "b39d31b8-5b26-4912-b00b-a62a919929e2",
      "identifier": {
        "value": "1766749"
      },
      "questionnaire": {
        "reference": "urn:uuid:4fe8b915-02f9-4ca7-859e-1d03cf01fd10"
      },
      "status": "completed",
      "subject": {
        "reference": "urn:uuid:66460de9-757a-47f6-adab-7f0ca00219a7"
      },
      "context": {
        "reference": "urn:uuid:0270882a-086c-4d2c-8114-aa088ce76d9e"
      },
      "authored": "2021-08-03T13:04:53+00:00",
      "item": [ {
        "linkId": "Tx221814",
        "text": "STRING:aninjuryorotherhealthproblemestablishedinEntryFlow",
        "answer": [ {
          "valueString": "\"\"present\"\""
        } ]
      } ]
    }
  }, {
    "fullUrl": "urn:uuid:4fe8b915-02f9-4ca7-859e-1d03cf01fd10",
    "resource": {
      "resourceType": "Questionnaire",
      "id": "4fe8b915-02f9-4ca7-859e-1d03cf01fd10",
      "identifier": [ {
        "value": "1766749"
      } ],
      "version": "2021-08-03T13:04:53.000Z",
      "status": "active",
      "experimental": false,
      "date": "2021-08-03T13:04:53+00:00",
      "publisher": "User ID: '922' User name: 'AndrewJ.Walford' User skill set: 'T4'",
      "lastReviewDate": "2021-08-03",
      "contact": [ {
        "telecom": [ {
          "system": "phone",
          "value": "07798501130"
        } ]
      } ],
      "subjectType": [ "Patient" ],
      "item": [ {
        "linkId": "1766749",
        "prefix": "0",
        "text": "STRING:aninjuryorotherhealthproblemestablishedinEntryFlow",
        "type": "choice",
        "required": true,
        "repeats": false,
        "option": [ {
          "valueString": "\"\"present\"\", Selected: true"
        } ]
      } ]
    }
  }, {
    "fullUrl": "urn:uuid:d9d4b7cb-f21a-4bec-ac50-ee002c851518",
    "resource": {
      "resourceType": "QuestionnaireResponse",
      "id": "d9d4b7cb-f21a-4bec-ac50-ee002c851518",
      "identifier": {
        "value": "1766749"
      },
      "questionnaire": {
        "reference": "urn:uuid:837d8572-9163-4d81-854e-2c457f8bf5b8"
      },
      "status": "completed",
      "subject": {
        "reference": "urn:uuid:66460de9-757a-47f6-adab-7f0ca00219a7"
      },
      "context": {
        "reference": "urn:uuid:0270882a-086c-4d2c-8114-aa088ce76d9e"
      },
      "authored": "2021-08-03T13:04:53+00:00",
      "item": [ {
        "linkId": "Tx224120",
        "text": "Have you been bleeding RED BLOOD very heavily IN THE LAST 2 HOURS?",
        "answer": [ {
          "valueString": "no"
        } ]
      } ]
    }
  }, {
    "fullUrl": "urn:uuid:837d8572-9163-4d81-854e-2c457f8bf5b8",
    "resource": {
      "resourceType": "Questionnaire",
      "id": "837d8572-9163-4d81-854e-2c457f8bf5b8",
      "identifier": [ {
        "value": "1766749"
      } ],
      "version": "2021-08-03T13:04:53.000Z",
      "status": "active",
      "experimental": false,
      "date": "2021-08-03T13:04:53+00:00",
      "publisher": "User ID: '922' User name: 'AndrewJ.Walford' User skill set: 'T4'",
      "lastReviewDate": "2021-08-03",
      "contact": [ {
        "telecom": [ {
          "system": "phone",
          "value": "07798501130"
        } ]
      } ],
      "subjectType": [ "Patient" ],
      "item": [ {
        "linkId": "1766749",
        "prefix": "7000",
        "text": "Have you been bleeding RED BLOOD very heavily IN THE LAST 2 HOURS?",
        "type": "choice",
        "required": true,
        "repeats": false,
        "option": [ {
          "valueString": "yes, Selected: false"
        }, {
          "valueString": "not sure, Selected: false"
        }, {
          "valueString": "no, Selected: true"
        } ]
      } ]
    }
  }, {
    "fullUrl": "urn:uuid:9f20b180-9b86-494c-8637-86e2d0b0ed4f",
    "resource": {
      "resourceType": "QuestionnaireResponse",
      "id": "9f20b180-9b86-494c-8637-86e2d0b0ed4f",
      "identifier": {
        "value": "1766749"
      },
      "questionnaire": {
        "reference": "urn:uuid:02955de4-e52e-4634-8a5d-cde8f48326aa"
      },
      "status": "completed",
      "subject": {
        "reference": "urn:uuid:66460de9-757a-47f6-adab-7f0ca00219a7"
      },
      "context": {
        "reference": "urn:uuid:0270882a-086c-4d2c-8114-aa088ce76d9e"
      },
      "authored": "2021-08-03T13:04:53+00:00",
      "item": [ {
        "linkId": "Tx221343",
        "text": "SocialConcernsExcluded",
        "answer": [ {
          "valueString": "*"
        } ]
      } ]
    }
  }, {
    "fullUrl": "urn:uuid:02955de4-e52e-4634-8a5d-cde8f48326aa",
    "resource": {
      "resourceType": "Questionnaire",
      "id": "02955de4-e52e-4634-8a5d-cde8f48326aa",
      "identifier": [ {
        "value": "1766749"
      } ],
      "version": "2021-08-03T13:04:53.000Z",
      "status": "active",
      "experimental": false,
      "date": "2021-08-03T13:04:53+00:00",
      "publisher": "User ID: '922' User name: 'AndrewJ.Walford' User skill set: 'T4'",
      "lastReviewDate": "2021-08-03",
      "contact": [ {
        "telecom": [ {
          "system": "phone",
          "value": "07798501130"
        } ]
      } ],
      "subjectType": [ "Patient" ],
      "item": [ {
        "linkId": "1766749",
        "prefix": "2700",
        "text": "SocialConcernsExcluded",
        "type": "choice",
        "required": true,
        "repeats": false,
        "option": [ {
          "valueString": "==\"\"present\"\", Selected: false"
        }, {
          "valueString": "*, Selected: true"
        } ]
      } ]
    }
  }, {
    "fullUrl": "urn:uuid:24da5306-088c-4a18-afca-e83214bbd34d",
    "resource": {
      "resourceType": "QuestionnaireResponse",
      "id": "24da5306-088c-4a18-afca-e83214bbd34d",
      "identifier": {
        "value": "1766749"
      },
      "questionnaire": {
        "reference": "urn:uuid:f4db8e6f-123d-4f60-96ce-89aaff270c37"
      },
      "status": "completed",
      "subject": {
        "reference": "urn:uuid:66460de9-757a-47f6-adab-7f0ca00219a7"
      },
      "context": {
        "reference": "urn:uuid:0270882a-086c-4d2c-8114-aa088ce76d9e"
      },
      "authored": "2021-08-03T13:04:53+00:00",
      "item": [ {
        "linkId": "Tx130011",
        "text": "What is the main problem?",
        "answer": [ {
          "valueString": "illness or other health problem (specify)"
        } ]
      } ]
    }
  }, {
    "fullUrl": "urn:uuid:f4db8e6f-123d-4f60-96ce-89aaff270c37",
    "resource": {
      "resourceType": "Questionnaire",
      "id": "f4db8e6f-123d-4f60-96ce-89aaff270c37",
      "identifier": [ {
        "value": "1766749"
      } ],
      "version": "2021-08-03T13:04:53.000Z",
      "status": "active",
      "experimental": false,
      "date": "2021-08-03T13:04:53+00:00",
      "publisher": "User ID: '922' User name: 'AndrewJ.Walford' User skill set: 'T4'",
      "lastReviewDate": "2021-08-03",
      "contact": [ {
        "telecom": [ {
          "system": "phone",
          "value": "07798501130"
        } ]
      } ],
      "subjectType": [ "Patient" ],
      "item": [ {
        "linkId": "1766749",
        "prefix": "3400",
        "text": "What is the main problem?",
        "type": "choice",
        "required": true,
        "repeats": false,
        "option": [ {
          "valueString": "the individual has been told to follow a particular course of action (specify), Selected: false"
        }, {
          "valueString": "the individual is an identified frequent caller, Selected: false"
        }, {
          "valueString": "injury (specify), Selected: false"
        }, {
          "valueString": "illness or other health problem (specify), Selected: true"
        }, {
          "valueString": "child protection/vulnerable adult concern, Selected: false"
        }, {
          "valueString": "social or domestic emergency, Selected: false"
        }, {
          "valueString": "the environment potentially poses an immediate threat to life (specify), Selected: false"
        } ]
      } ]
    }
  }, {
    "fullUrl": "urn:uuid:1a6ffb7a-6fb0-4568-bb99-2506ae04beb3",
    "resource": {
      "resourceType": "QuestionnaireResponse",
      "id": "1a6ffb7a-6fb0-4568-bb99-2506ae04beb3",
      "identifier": {
        "value": "1766749"
      },
      "questionnaire": {
        "reference": "urn:uuid:8e8ce2e5-c083-4ea5-9f80-f39542c10119"
      },
      "status": "completed",
      "subject": {
        "reference": "urn:uuid:66460de9-757a-47f6-adab-7f0ca00219a7"
      },
      "context": {
        "reference": "urn:uuid:0270882a-086c-4d2c-8114-aa088ce76d9e"
      },
      "authored": "2021-08-03T13:04:53+00:00",
      "item": [ {
        "linkId": "Tx61025",
        "text": "Are you so breathless that speaking more than a few words is impossible?",
        "answer": [ {
          "valueString": "no"
        } ]
      } ]
    }
  }, {
    "fullUrl": "urn:uuid:8e8ce2e5-c083-4ea5-9f80-f39542c10119",
    "resource": {
      "resourceType": "Questionnaire",
      "id": "8e8ce2e5-c083-4ea5-9f80-f39542c10119",
      "identifier": [ {
        "value": "1766749"
      } ],
      "version": "2021-08-03T13:04:53.000Z",
      "status": "active",
      "experimental": false,
      "date": "2021-08-03T13:04:53+00:00",
      "publisher": "User ID: '922' User name: 'AndrewJ.Walford' User skill set: 'T4'",
      "lastReviewDate": "2021-08-03",
      "contact": [ {
        "telecom": [ {
          "system": "phone",
          "value": "07798501130"
        } ]
      } ],
      "subjectType": [ "Patient" ],
      "item": [ {
        "linkId": "1766749",
        "prefix": "0",
        "text": "Are you so breathless that speaking more than a few words is impossible?",
        "type": "choice",
        "required": true,
        "repeats": false,
        "option": [ {
          "valueString": "yes, Selected: false"
        }, {
          "valueString": "not sure, Selected: false"
        }, {
          "valueString": "no, Selected: true"
        } ]
      } ]
    }
  }, {
    "fullUrl": "urn:uuid:69b1dcb3-fe4e-41d5-89f8-4d059584a6a7",
    "resource": {
      "resourceType": "QuestionnaireResponse",
      "id": "69b1dcb3-fe4e-41d5-89f8-4d059584a6a7",
      "identifier": {
        "value": "1766749"
      },
      "questionnaire": {
        "reference": "urn:uuid:5719185c-92c6-4dcd-b768-0c01cd06c8f8"
      },
      "status": "completed",
      "subject": {
        "reference": "urn:uuid:66460de9-757a-47f6-adab-7f0ca00219a7"
      },
      "context": {
        "reference": "urn:uuid:0270882a-086c-4d2c-8114-aa088ce76d9e"
      },
      "authored": "2021-08-03T13:04:53+00:00",
      "item": [ {
        "linkId": "Tx220845",
        "text": "SYSTEM_FLUPANDEMIC",
        "answer": [ {
          "valueString": "*"
        } ]
      } ]
    }
  }, {
    "fullUrl": "urn:uuid:5719185c-92c6-4dcd-b768-0c01cd06c8f8",
    "resource": {
      "resourceType": "Questionnaire",
      "id": "5719185c-92c6-4dcd-b768-0c01cd06c8f8",
      "identifier": [ {
        "value": "1766749"
      } ],
      "version": "2021-08-03T13:04:53.000Z",
      "status": "active",
      "experimental": false,
      "date": "2021-08-03T13:04:53+00:00",
      "publisher": "User ID: '922' User name: 'AndrewJ.Walford' User skill set: 'T4'",
      "lastReviewDate": "2021-08-03",
      "contact": [ {
        "telecom": [ {
          "system": "phone",
          "value": "07798501130"
        } ]
      } ],
      "subjectType": [ "Patient" ],
      "item": [ {
        "linkId": "1766749",
        "prefix": "100",
        "text": "SYSTEM_FLUPANDEMIC",
        "type": "choice",
        "required": true,
        "repeats": false,
        "option": [ {
          "valueString": "==\"\"pandemic\"\", Selected: false"
        }, {
          "valueString": "*, Selected: true"
        } ]
      } ]
    }
  }, {
    "fullUrl": "urn:uuid:94f1964f-2e6a-49ed-a0fb-81d984345cc2",
    "resource": {
      "resourceType": "QuestionnaireResponse",
      "id": "94f1964f-2e6a-49ed-a0fb-81d984345cc2",
      "identifier": {
        "value": "1766749"
      },
      "questionnaire": {
        "reference": "urn:uuid:81c351f6-2076-406d-8487-ef4bc99e67ad"
      },
      "status": "completed",
      "subject": {
        "reference": "urn:uuid:66460de9-757a-47f6-adab-7f0ca00219a7"
      },
      "context": {
        "reference": "urn:uuid:0270882a-086c-4d2c-8114-aa088ce76d9e"
      },
      "authored": "2021-08-03T13:04:53+00:00",
      "item": [ {
        "linkId": "Tx223440",
        "text": "WHAT IS SAID TO BE THE MAIN REASON FOR THIS CONTACT?",
        "answer": [ {
          "valueString": "more"
        } ]
      } ]
    }
  }, {
    "fullUrl": "urn:uuid:81c351f6-2076-406d-8487-ef4bc99e67ad",
    "resource": {
      "resourceType": "Questionnaire",
      "id": "81c351f6-2076-406d-8487-ef4bc99e67ad",
      "identifier": [ {
        "value": "1766749"
      } ],
      "version": "2021-08-03T13:04:53.000Z",
      "status": "active",
      "experimental": false,
      "date": "2021-08-03T13:04:53+00:00",
      "publisher": "User ID: '922' User name: 'AndrewJ.Walford' User skill set: 'T4'",
      "lastReviewDate": "2021-08-03",
      "contact": [ {
        "telecom": [ {
          "system": "phone",
          "value": "07798501130"
        } ]
      } ],
      "subjectType": [ "Patient" ],
      "item": [ {
        "linkId": "1766749",
        "prefix": "5000",
        "text": "WHAT IS SAID TO BE THE MAIN REASON FOR THIS CONTACT?",
        "type": "choice",
        "required": true,
        "repeats": false,
        "option": [ {
          "valueString": "a probable allergic reaction now, Selected: false"
        }, {
          "valueString": "a probable heart attack, Selected: false"
        }, {
          "valueString": "chest or upper back pain, Selected: false"
        }, {
          "valueString": "a probable stroke or mini-stroke, Selected: false"
        }, {
          "valueString": "a probable fit or seizure within the last 12 hours, Selected: false"
        }, {
          "valueString": "a suicide attempt, Selected: false"
        }, {
          "valueString": "more, Selected: true"
        } ]
      } ]
    }
  }, {
    "fullUrl": "urn:uuid:3e9ef283-4c6b-42ce-a736-0d100ca90535",
    "resource": {
      "resourceType": "QuestionnaireResponse",
      "id": "3e9ef283-4c6b-42ce-a736-0d100ca90535",
      "identifier": {
        "value": "1766749"
      },
      "questionnaire": {
        "reference": "urn:uuid:aa2ec6b2-faf0-4e60-957e-9cabc4a29436"
      },
      "status": "completed",
      "subject": {
        "reference": "urn:uuid:66460de9-757a-47f6-adab-7f0ca00219a7"
      },
      "context": {
        "reference": "urn:uuid:0270882a-086c-4d2c-8114-aa088ce76d9e"
      },
      "authored": "2021-08-03T13:04:53+00:00",
      "item": [ {
        "linkId": "Tx220032",
        "text": "WHAT IS SAID TO BE THE MAIN REASON FOR THIS CONTACT?",
        "answer": [ {
          "valueString": "none of the above"
        } ]
      } ]
    }
  }, {
    "fullUrl": "urn:uuid:aa2ec6b2-faf0-4e60-957e-9cabc4a29436",
    "resource": {
      "resourceType": "Questionnaire",
      "id": "aa2ec6b2-faf0-4e60-957e-9cabc4a29436",
      "identifier": [ {
        "value": "1766749"
      } ],
      "version": "2021-08-03T13:04:53.000Z",
      "status": "active",
      "experimental": false,
      "date": "2021-08-03T13:04:53+00:00",
      "publisher": "User ID: '922' User name: 'AndrewJ.Walford' User skill set: 'T4'",
      "lastReviewDate": "2021-08-03",
      "contact": [ {
        "telecom": [ {
          "system": "phone",
          "value": "07798501130"
        } ]
      } ],
      "subjectType": [ "Patient" ],
      "item": [ {
        "linkId": "1766749",
        "prefix": "1900",
        "text": "WHAT IS SAID TO BE THE MAIN REASON FOR THIS CONTACT?",
        "type": "choice",
        "required": true,
        "repeats": false,
        "option": [ {
          "valueString": "new confusion now, Selected: false"
        }, {
          "valueString": "a diabetic hypo (low blood sugar) or a diabetic hyper (high blood sugar), Selected: false"
        }, {
          "valueString": "recovery from an ICD (implanted cardioverter defibrillator) shock, Selected: false"
        }, {
          "valueString": "none of the above, Selected: true"
        } ]
      } ]
    }
  }, {
    "fullUrl": "urn:uuid:723c2a1a-1d33-48df-9d15-3bb86028ef51",
    "resource": {
      "resourceType": "QuestionnaireResponse",
      "id": "723c2a1a-1d33-48df-9d15-3bb86028ef51",
      "identifier": {
        "value": "1766749"
      },
      "questionnaire": {
        "reference": "urn:uuid:6ef17e62-e8f8-478d-b9c3-7f8a0cc09a49"
      },
      "status": "completed",
      "subject": {
        "reference": "urn:uuid:66460de9-757a-47f6-adab-7f0ca00219a7"
      },
      "context": {
        "reference": "urn:uuid:0270882a-086c-4d2c-8114-aa088ce76d9e"
      },
      "authored": "2021-08-03T13:04:53+00:00",
      "item": [ {
        "linkId": "Tx223142",
        "text": "Does the skin on the chest, back or abdomen feel a normal temperature?",
        "answer": [ {
          "valueString": "yes - normal, warm or hot"
        } ]
      } ]
    }
  }, {
    "fullUrl": "urn:uuid:6ef17e62-e8f8-478d-b9c3-7f8a0cc09a49",
    "resource": {
      "resourceType": "Questionnaire",
      "id": "6ef17e62-e8f8-478d-b9c3-7f8a0cc09a49",
      "identifier": [ {
        "value": "1766749"
      } ],
      "version": "2021-08-03T13:04:53.000Z",
      "status": "active",
      "experimental": false,
      "date": "2021-08-03T13:04:53+00:00",
      "publisher": "User ID: '922' User name: 'AndrewJ.Walford' User skill set: 'T4'",
      "lastReviewDate": "2021-08-03",
      "contact": [ {
        "telecom": [ {
          "system": "phone",
          "value": "07798501130"
        } ]
      } ],
      "subjectType": [ "Patient" ],
      "item": [ {
        "linkId": "1766749",
        "prefix": "4000",
        "text": "Does the skin on the chest, back or abdomen feel a normal temperature?",
        "type": "choice",
        "required": true,
        "repeats": false,
        "option": [ {
          "valueString": "yes - normal, warm or hot, Selected: true"
        }, {
          "valueString": "not sure, Selected: false"
        }, {
          "valueString": "no - cool OR cold, Selected: false"
        }, {
          "valueString": "not safe to touch, Selected: false"
        } ]
      } ]
    }
  }, {
    "fullUrl": "urn:uuid:3d45a7c5-38e4-4058-9ea0-c20afef89418",
    "resource": {
      "resourceType": "QuestionnaireResponse",
      "id": "3d45a7c5-38e4-4058-9ea0-c20afef89418",
      "identifier": {
        "value": "1766749"
      },
      "questionnaire": {
        "reference": "urn:uuid:6df70296-791c-44d3-a95a-1d584b84228d"
      },
      "status": "completed",
      "subject": {
        "reference": "urn:uuid:66460de9-757a-47f6-adab-7f0ca00219a7"
      },
      "context": {
        "reference": "urn:uuid:0270882a-086c-4d2c-8114-aa088ce76d9e"
      },
      "authored": "2021-08-03T13:04:53+00:00",
      "item": [ {
        "linkId": "Tx221724",
        "text": "STRING:ShockAsked",
        "answer": [ {
          "valueString": "\"\"present\"\""
        } ]
      } ]
    }
  }, {
    "fullUrl": "urn:uuid:6df70296-791c-44d3-a95a-1d584b84228d",
    "resource": {
      "resourceType": "Questionnaire",
      "id": "6df70296-791c-44d3-a95a-1d584b84228d",
      "identifier": [ {
        "value": "1766749"
      } ],
      "version": "2021-08-03T13:04:53.000Z",
      "status": "active",
      "experimental": false,
      "date": "2021-08-03T13:04:53+00:00",
      "publisher": "User ID: '922' User name: 'AndrewJ.Walford' User skill set: 'T4'",
      "lastReviewDate": "2021-08-03",
      "contact": [ {
        "telecom": [ {
          "system": "phone",
          "value": "07798501130"
        } ]
      } ],
      "subjectType": [ "Patient" ],
      "item": [ {
        "linkId": "1766749",
        "prefix": "3300",
        "text": "STRING:ShockAsked",
        "type": "choice",
        "required": true,
        "repeats": false,
        "option": [ {
          "valueString": "\"\"present\"\", Selected: true"
        } ]
      } ]
    }
  }, {
    "fullUrl": "urn:uuid:f7fd372f-20f7-45c6-bd6d-03b880a6dd50",
    "resource": {
      "resourceType": "QuestionnaireResponse",
      "id": "f7fd372f-20f7-45c6-bd6d-03b880a6dd50",
      "identifier": {
        "value": "1766749"
      },
      "questionnaire": {
        "reference": "urn:uuid:c3c31e73-fcfe-4eea-8834-906318a3ae57"
      },
      "status": "completed",
      "subject": {
        "reference": "urn:uuid:66460de9-757a-47f6-adab-7f0ca00219a7"
      },
      "context": {
        "reference": "urn:uuid:0270882a-086c-4d2c-8114-aa088ce76d9e"
      },
      "authored": "2021-08-03T13:04:53+00:00"
    }
  }, {
    "fullUrl": "urn:uuid:c3c31e73-fcfe-4eea-8834-906318a3ae57",
    "resource": {
      "resourceType": "Questionnaire",
      "id": "c3c31e73-fcfe-4eea-8834-906318a3ae57",
      "identifier": [ {
        "value": "1766749"
      } ],
      "version": "2021-08-03T13:04:53.000Z",
      "status": "active",
      "experimental": false,
      "date": "2021-08-03T13:04:53+00:00",
      "publisher": "User ID: '922' User name: 'AndrewJ.Walford' User skill set: 'T4'",
      "lastReviewDate": "2021-08-03",
      "contact": [ {
        "telecom": [ {
          "system": "phone",
          "value": "07798501130"
        } ]
      } ],
      "subjectType": [ "Patient" ]
    }
  }, {
    "fullUrl": "urn:uuid:9b5f9d59-2e1e-44dd-a0b9-a42dc4953ba5",
    "resource": {
      "resourceType": "QuestionnaireResponse",
      "id": "9b5f9d59-2e1e-44dd-a0b9-a42dc4953ba5",
      "identifier": {
        "value": "1766749"
      },
      "questionnaire": {
        "reference": "urn:uuid:2414507d-357a-4b34-9a10-1af4b7338dc5"
      },
      "status": "completed",
      "subject": {
        "reference": "urn:uuid:66460de9-757a-47f6-adab-7f0ca00219a7"
      },
      "context": {
        "reference": "urn:uuid:0270882a-086c-4d2c-8114-aa088ce76d9e"
      },
      "authored": "2021-08-03T13:04:53+00:00"
    }
  }, {
    "fullUrl": "urn:uuid:2414507d-357a-4b34-9a10-1af4b7338dc5",
    "resource": {
      "resourceType": "Questionnaire",
      "id": "2414507d-357a-4b34-9a10-1af4b7338dc5",
      "identifier": [ {
        "value": "1766749"
      } ],
      "version": "2021-08-03T13:04:53.000Z",
      "status": "active",
      "experimental": false,
      "date": "2021-08-03T13:04:53+00:00",
      "publisher": "User ID: '922' User name: 'AndrewJ.Walford' User skill set: 'T4'",
      "lastReviewDate": "2021-08-03",
      "contact": [ {
        "telecom": [ {
          "system": "phone",
          "value": "07798501130"
        } ]
      } ],
      "subjectType": [ "Patient" ]
    }
  }, {
    "fullUrl": "urn:uuid:36394866-9844-4303-9551-8205ee1e3d81",
    "resource": {
      "resourceType": "QuestionnaireResponse",
      "id": "36394866-9844-4303-9551-8205ee1e3d81",
      "identifier": {
        "value": "1766749"
      },
      "questionnaire": {
        "reference": "urn:uuid:e315a2c1-e11f-478c-9a86-671560bfb4b5"
      },
      "status": "completed",
      "subject": {
        "reference": "urn:uuid:66460de9-757a-47f6-adab-7f0ca00219a7"
      },
      "context": {
        "reference": "urn:uuid:0270882a-086c-4d2c-8114-aa088ce76d9e"
      },
      "authored": "2021-08-03T13:04:53+00:00",
      "item": [ {
        "linkId": "Tx224190",
        "text": "Does the problem stop you from doing ALL of your normal activities?",
        "answer": [ {
          "valueString": "no - able to do most or all of their activities"
        } ]
      } ]
    }
  }, {
    "fullUrl": "urn:uuid:e315a2c1-e11f-478c-9a86-671560bfb4b5",
    "resource": {
      "resourceType": "Questionnaire",
      "id": "e315a2c1-e11f-478c-9a86-671560bfb4b5",
      "identifier": [ {
        "value": "1766749"
      } ],
      "version": "2021-08-03T13:04:53.000Z",
      "status": "active",
      "experimental": false,
      "date": "2021-08-03T13:04:53+00:00",
      "publisher": "User ID: '922' User name: 'AndrewJ.Walford' User skill set: 'T4'",
      "lastReviewDate": "2021-08-03",
      "contact": [ {
        "telecom": [ {
          "system": "phone",
          "value": "07798501130"
        } ]
      } ],
      "subjectType": [ "Patient" ],
      "item": [ {
        "linkId": "1766749",
        "prefix": "4900",
        "text": "Does the problem stop you from doing ALL of your normal activities?",
        "type": "choice",
        "required": true,
        "repeats": false,
        "option": [ {
          "valueString": "yes - unable to do all of their normal activities, Selected: false"
        }, {
          "valueString": "no - able to do some of their normal activities, Selected: false"
        }, {
          "valueString": "no - able to do most or all of their activities, Selected: true"
        } ]
      } ]
    }
  }, {
    "fullUrl": "urn:uuid:45343fdc-ed85-4681-ad38-968fc2e96368",
    "resource": {
      "resourceType": "QuestionnaireResponse",
      "id": "45343fdc-ed85-4681-ad38-968fc2e96368",
      "identifier": {
        "value": "1766749"
      },
      "questionnaire": {
        "reference": "urn:uuid:1b10bdc3-59dd-4af5-9994-127277cee50a"
      },
      "status": "completed",
      "subject": {
        "reference": "urn:uuid:66460de9-757a-47f6-adab-7f0ca00219a7"
      },
      "context": {
        "reference": "urn:uuid:0270882a-086c-4d2c-8114-aa088ce76d9e"
      },
      "authored": "2021-08-03T13:04:53+00:00",
      "item": [ {
        "linkId": "Tx220244",
        "text": "Have you got any of the following new symptoms?",
        "answer": [ {
          "valueString": "no"
        } ]
      } ]
    }
  }, {
    "fullUrl": "urn:uuid:1b10bdc3-59dd-4af5-9994-127277cee50a",
    "resource": {
      "resourceType": "Questionnaire",
      "id": "1b10bdc3-59dd-4af5-9994-127277cee50a",
      "identifier": [ {
        "value": "1766749"
      } ],
      "version": "2021-08-03T13:04:53.000Z",
      "status": "active",
      "experimental": false,
      "date": "2021-08-03T13:04:53+00:00",
      "publisher": "User ID: '922' User name: 'AndrewJ.Walford' User skill set: 'T4'",
      "lastReviewDate": "2021-08-03",
      "contact": [ {
        "telecom": [ {
          "system": "phone",
          "value": "07798501130"
        } ]
      } ],
      "subjectType": [ "Patient" ],
      "item": [ {
        "linkId": "1766749",
        "prefix": "17",
        "text": "Have you got any of the following new symptoms?",
        "type": "choice",
        "required": true,
        "repeats": false,
        "option": [ {
          "valueString": "unable to control the bowels, Selected: false"
        }, {
          "valueString": "unable to move one or both legs, Selected: false"
        }, {
          "valueString": "numbness or pins and needles in both legs or around the back passage, Selected: false"
        }, {
          "valueString": "not sure, Selected: false"
        }, {
          "valueString": "no, Selected: true"
        } ]
      } ]
    }
  }, {
    "fullUrl": "urn:uuid:5bf4dd3f-1ccf-4810-8d70-8cce1964e23f",
    "resource": {
      "resourceType": "QuestionnaireResponse",
      "id": "5bf4dd3f-1ccf-4810-8d70-8cce1964e23f",
      "identifier": {
        "value": "1766749"
      },
      "questionnaire": {
        "reference": "urn:uuid:53519775-37dc-4857-a9c5-52b78fc6aaa9"
      },
      "status": "completed",
      "subject": {
        "reference": "urn:uuid:66460de9-757a-47f6-adab-7f0ca00219a7"
      },
      "context": {
        "reference": "urn:uuid:0270882a-086c-4d2c-8114-aa088ce76d9e"
      },
      "authored": "2021-08-03T13:04:53+00:00",
      "item": [ {
        "linkId": "Tx221119",
        "text": "FunctionallyImpaired",
        "answer": [ {
          "valueString": "*"
        } ]
      } ]
    }
  }, {
    "fullUrl": "urn:uuid:53519775-37dc-4857-a9c5-52b78fc6aaa9",
    "resource": {
      "resourceType": "Questionnaire",
      "id": "53519775-37dc-4857-a9c5-52b78fc6aaa9",
      "identifier": [ {
        "value": "1766749"
      } ],
      "version": "2021-08-03T13:04:53.000Z",
      "status": "active",
      "experimental": false,
      "date": "2021-08-03T13:04:53+00:00",
      "publisher": "User ID: '922' User name: 'AndrewJ.Walford' User skill set: 'T4'",
      "lastReviewDate": "2021-08-03",
      "contact": [ {
        "telecom": [ {
          "system": "phone",
          "value": "07798501130"
        } ]
      } ],
      "subjectType": [ "Patient" ],
      "item": [ {
        "linkId": "1766749",
        "prefix": "5400",
        "text": "FunctionallyImpaired",
        "type": "choice",
        "required": true,
        "repeats": false,
        "option": [ {
          "valueString": "==\"\"present\"\", Selected: false"
        }, {
          "valueString": "*, Selected: true"
        } ]
      } ]
    }
  }, {
    "fullUrl": "urn:uuid:7ec6847b-6b18-478b-8fc1-b4d2c38d618d",
    "resource": {
      "resourceType": "QuestionnaireResponse",
      "id": "7ec6847b-6b18-478b-8fc1-b4d2c38d618d",
      "identifier": {
        "value": "1766749"
      },
      "questionnaire": {
        "reference": "urn:uuid:fb3f7e7a-c5ad-42d5-8553-ccb2436ee448"
      },
      "status": "completed",
      "subject": {
        "reference": "urn:uuid:66460de9-757a-47f6-adab-7f0ca00219a7"
      },
      "context": {
        "reference": "urn:uuid:0270882a-086c-4d2c-8114-aa088ce76d9e"
      },
      "authored": "2021-08-03T13:04:53+00:00",
      "item": [ {
        "linkId": "Tx221639",
        "text": "Have you been unable to pass urine for the last 12 hours, except for a few drops?",
        "answer": [ {
          "valueString": "no (ABLE TO pass urine)"
        } ]
      } ]
    }
  }, {
    "fullUrl": "urn:uuid:fb3f7e7a-c5ad-42d5-8553-ccb2436ee448",
    "resource": {
      "resourceType": "Questionnaire",
      "id": "fb3f7e7a-c5ad-42d5-8553-ccb2436ee448",
      "identifier": [ {
        "value": "1766749"
      } ],
      "version": "2021-08-03T13:04:53.000Z",
      "status": "active",
      "experimental": false,
      "date": "2021-08-03T13:04:53+00:00",
      "publisher": "User ID: '922' User name: 'AndrewJ.Walford' User skill set: 'T4'",
      "lastReviewDate": "2021-08-03",
      "contact": [ {
        "telecom": [ {
          "system": "phone",
          "value": "07798501130"
        } ]
      } ],
      "subjectType": [ "Patient" ],
      "item": [ {
        "linkId": "1766749",
        "prefix": "6100",
        "text": "Have you been unable to pass urine for the last 12 hours, except for a few drops?",
        "type": "choice",
        "required": true,
        "repeats": false,
        "option": [ {
          "valueString": "yes (UNABLE TO pass urine), Selected: false"
        }, {
          "valueString": "not sure, Selected: false"
        }, {
          "valueString": "no (ABLE TO pass urine), Selected: true"
        } ]
      } ]
    }
  }, {
    "fullUrl": "urn:uuid:7c0a86d9-6a5b-4729-bafe-f929412226c2",
    "resource": {
      "resourceType": "QuestionnaireResponse",
      "id": "7c0a86d9-6a5b-4729-bafe-f929412226c2",
      "identifier": {
        "value": "1766749"
      },
      "questionnaire": {
        "reference": "urn:uuid:9fa06274-01f5-49ed-9c16-43fe8cc1d003"
      },
      "status": "completed",
      "subject": {
        "reference": "urn:uuid:66460de9-757a-47f6-adab-7f0ca00219a7"
      },
      "context": {
        "reference": "urn:uuid:0270882a-086c-4d2c-8114-aa088ce76d9e"
      },
      "authored": "2021-08-03T13:04:53+00:00",
      "item": [ {
        "linkId": "Tx221119",
        "text": "FunctionallyImpaired",
        "answer": [ {
          "valueString": "*"
        } ]
      } ]
    }
  }, {
    "fullUrl": "urn:uuid:9fa06274-01f5-49ed-9c16-43fe8cc1d003",
    "resource": {
      "resourceType": "Questionnaire",
      "id": "9fa06274-01f5-49ed-9c16-43fe8cc1d003",
      "identifier": [ {
        "value": "1766749"
      } ],
      "version": "2021-08-03T13:04:53.000Z",
      "status": "active",
      "experimental": false,
      "date": "2021-08-03T13:04:53+00:00",
      "publisher": "User ID: '922' User name: 'AndrewJ.Walford' User skill set: 'T4'",
      "lastReviewDate": "2021-08-03",
      "contact": [ {
        "telecom": [ {
          "system": "phone",
          "value": "07798501130"
        } ]
      } ],
      "subjectType": [ "Patient" ],
      "item": [ {
        "linkId": "1766749",
        "prefix": "7200",
        "text": "FunctionallyImpaired",
        "type": "choice",
        "required": true,
        "repeats": false,
        "option": [ {
          "valueString": "==\"\"present\"\", Selected: false"
        }, {
          "valueString": "*, Selected: true"
        } ]
      } ]
    }
  }, {
    "fullUrl": "urn:uuid:02277f92-3756-49e8-9f70-6efbda746064",
    "resource": {
      "resourceType": "QuestionnaireResponse",
      "id": "02277f92-3756-49e8-9f70-6efbda746064",
      "identifier": {
        "value": "1766749"
      },
      "questionnaire": {
        "reference": "urn:uuid:2077b494-c9d1-43db-bf64-5202771c3cb5"
      },
      "status": "completed",
      "subject": {
        "reference": "urn:uuid:66460de9-757a-47f6-adab-7f0ca00219a7"
      },
      "context": {
        "reference": "urn:uuid:0270882a-086c-4d2c-8114-aa088ce76d9e"
      },
      "authored": "2021-08-03T13:04:53+00:00",
      "item": [ {
        "linkId": "Tx223485",
        "text": "ConfusionDeclared",
        "answer": [ {
          "valueString": "*"
        } ]
      } ]
    }
  }, {
    "fullUrl": "urn:uuid:2077b494-c9d1-43db-bf64-5202771c3cb5",
    "resource": {
      "resourceType": "Questionnaire",
      "id": "2077b494-c9d1-43db-bf64-5202771c3cb5",
      "identifier": [ {
        "value": "1766749"
      } ],
      "version": "2021-08-03T13:04:53.000Z",
      "status": "active",
      "experimental": false,
      "date": "2021-08-03T13:04:53+00:00",
      "publisher": "User ID: '922' User name: 'AndrewJ.Walford' User skill set: 'T4'",
      "lastReviewDate": "2021-08-03",
      "contact": [ {
        "telecom": [ {
          "system": "phone",
          "value": "07798501130"
        } ]
      } ],
      "subjectType": [ "Patient" ],
      "item": [ {
        "linkId": "1766749",
        "prefix": "2900",
        "text": "ConfusionDeclared",
        "type": "choice",
        "required": true,
        "repeats": false,
        "option": [ {
          "valueString": "==\"\"present\"\", Selected: false"
        }, {
          "valueString": "*, Selected: true"
        } ]
      } ]
    }
  }, {
    "fullUrl": "urn:uuid:c0bec2b0-deb4-45f4-b936-0e4e0f3c86d7",
    "resource": {
      "resourceType": "QuestionnaireResponse",
      "id": "c0bec2b0-deb4-45f4-b936-0e4e0f3c86d7",
      "identifier": {
        "value": "1766749"
      },
      "questionnaire": {
        "reference": "urn:uuid:ebd17328-5a16-499c-aea0-98cff0128f92"
      },
      "status": "completed",
      "subject": {
        "reference": "urn:uuid:66460de9-757a-47f6-adab-7f0ca00219a7"
      },
      "context": {
        "reference": "urn:uuid:0270882a-086c-4d2c-8114-aa088ce76d9e"
      },
      "authored": "2021-08-03T13:04:53+00:00",
      "item": [ {
        "linkId": "Tx1213",
        "text": "Have you suddenly become confused OR more confused than usual?",
        "answer": [ {
          "valueString": "no"
        } ]
      } ]
    }
  }, {
    "fullUrl": "urn:uuid:ebd17328-5a16-499c-aea0-98cff0128f92",
    "resource": {
      "resourceType": "Questionnaire",
      "id": "ebd17328-5a16-499c-aea0-98cff0128f92",
      "identifier": [ {
        "value": "1766749"
      } ],
      "version": "2021-08-03T13:04:53.000Z",
      "status": "active",
      "experimental": false,
      "date": "2021-08-03T13:04:53+00:00",
      "publisher": "User ID: '922' User name: 'AndrewJ.Walford' User skill set: 'T4'",
      "lastReviewDate": "2021-08-03",
      "contact": [ {
        "telecom": [ {
          "system": "phone",
          "value": "07798501130"
        } ]
      } ],
      "subjectType": [ "Patient" ],
      "item": [ {
        "linkId": "1766749",
        "prefix": "7700",
        "text": "Have you suddenly become confused OR more confused than usual?",
        "type": "choice",
        "required": true,
        "repeats": false,
        "option": [ {
          "valueString": "yes, Selected: false"
        }, {
          "valueString": "not sure, Selected: false"
        }, {
          "valueString": "no, Selected: true"
        } ]
      } ]
    }
  }, {
    "fullUrl": "urn:uuid:98872bb6-d25f-40de-824e-ad7fcee4d34b",
    "resource": {
      "resourceType": "QuestionnaireResponse",
      "id": "98872bb6-d25f-40de-824e-ad7fcee4d34b",
      "identifier": {
        "value": "1766749"
      },
      "questionnaire": {
        "reference": "urn:uuid:0ad8243f-e1b5-4fd4-af55-670a802f47ec"
      },
      "status": "completed",
      "subject": {
        "reference": "urn:uuid:66460de9-757a-47f6-adab-7f0ca00219a7"
      },
      "context": {
        "reference": "urn:uuid:0270882a-086c-4d2c-8114-aa088ce76d9e"
      },
      "authored": "2021-08-03T13:04:53+00:00",
      "item": [ {
        "linkId": "Tx220164",
        "text": "Are you breathing faster or harder when doing nothing at all?",
        "answer": [ {
          "valueString": "no"
        } ]
      } ]
    }
  }, {
    "fullUrl": "urn:uuid:0ad8243f-e1b5-4fd4-af55-670a802f47ec",
    "resource": {
      "resourceType": "Questionnaire",
      "id": "0ad8243f-e1b5-4fd4-af55-670a802f47ec",
      "identifier": [ {
        "value": "1766749"
      } ],
      "version": "2021-08-03T13:04:53.000Z",
      "status": "active",
      "experimental": false,
      "date": "2021-08-03T13:04:53+00:00",
      "publisher": "User ID: '922' User name: 'AndrewJ.Walford' User skill set: 'T4'",
      "lastReviewDate": "2021-08-03",
      "contact": [ {
        "telecom": [ {
          "system": "phone",
          "value": "07798501130"
        } ]
      } ],
      "subjectType": [ "Patient" ],
      "item": [ {
        "linkId": "1766749",
        "prefix": "3400",
        "text": "Are you breathing faster or harder when doing nothing at all?",
        "type": "choice",
        "required": true,
        "repeats": false,
        "option": [ {
          "valueString": "yes, Selected: false"
        }, {
          "valueString": "not sure, Selected: false"
        }, {
          "valueString": "no, Selected: true"
        } ]
      } ]
    }
  }, {
    "fullUrl": "urn:uuid:787051a5-76cc-4645-a3c8-7b7254352cb8",
    "resource": {
      "resourceType": "QuestionnaireResponse",
      "id": "787051a5-76cc-4645-a3c8-7b7254352cb8",
      "identifier": {
        "value": "1766749"
      },
      "questionnaire": {
        "reference": "urn:uuid:98eafdd1-18bd-4bfa-876e-6c92f6551327"
      },
      "status": "completed",
      "subject": {
        "reference": "urn:uuid:66460de9-757a-47f6-adab-7f0ca00219a7"
      },
      "context": {
        "reference": "urn:uuid:0270882a-086c-4d2c-8114-aa088ce76d9e"
      },
      "authored": "2021-08-03T13:04:53+00:00",
      "item": [ {
        "linkId": "Tx224506",
        "text": "UnableToPassUrine",
        "answer": [ {
          "valueString": "*"
        } ]
      } ]
    }
  }, {
    "fullUrl": "urn:uuid:98eafdd1-18bd-4bfa-876e-6c92f6551327",
    "resource": {
      "resourceType": "Questionnaire",
      "id": "98eafdd1-18bd-4bfa-876e-6c92f6551327",
      "identifier": [ {
        "value": "1766749"
      } ],
      "version": "2021-08-03T13:04:53.000Z",
      "status": "active",
      "experimental": false,
      "date": "2021-08-03T13:04:53+00:00",
      "publisher": "User ID: '922' User name: 'AndrewJ.Walford' User skill set: 'T4'",
      "lastReviewDate": "2021-08-03",
      "contact": [ {
        "telecom": [ {
          "system": "phone",
          "value": "07798501130"
        } ]
      } ],
      "subjectType": [ "Patient" ],
      "item": [ {
        "linkId": "1766749",
        "prefix": "8300",
        "text": "UnableToPassUrine",
        "type": "choice",
        "required": true,
        "repeats": false,
        "option": [ {
          "valueString": "==\"\"present\"\", Selected: false"
        }, {
          "valueString": "*, Selected: true"
        } ]
      } ]
    }
  }, {
    "fullUrl": "urn:uuid:4babd098-4fb8-4476-a4b1-a57c36e7c048",
    "resource": {
      "resourceType": "QuestionnaireResponse",
      "id": "4babd098-4fb8-4476-a4b1-a57c36e7c048",
      "identifier": {
        "value": "1766749"
      },
      "questionnaire": {
        "reference": "urn:uuid:4e0200a7-90d0-4a20-8c1f-4c6273be4235"
      },
      "status": "completed",
      "subject": {
        "reference": "urn:uuid:66460de9-757a-47f6-adab-7f0ca00219a7"
      },
      "context": {
        "reference": "urn:uuid:0270882a-086c-4d2c-8114-aa088ce76d9e"
      },
      "authored": "2021-08-03T13:04:53+00:00",
      "item": [ {
        "linkId": "Tx222078",
        "text": "Have you got pain in the spine?",
        "answer": [ {
          "valueString": "no"
        } ]
      } ]
    }
  }, {
    "fullUrl": "urn:uuid:4e0200a7-90d0-4a20-8c1f-4c6273be4235",
    "resource": {
      "resourceType": "Questionnaire",
      "id": "4e0200a7-90d0-4a20-8c1f-4c6273be4235",
      "identifier": [ {
        "value": "1766749"
      } ],
      "version": "2021-08-03T13:04:53.000Z",
      "status": "active",
      "experimental": false,
      "date": "2021-08-03T13:04:53+00:00",
      "publisher": "User ID: '922' User name: 'AndrewJ.Walford' User skill set: 'T4'",
      "lastReviewDate": "2021-08-03",
      "contact": [ {
        "telecom": [ {
          "system": "phone",
          "value": "07798501130"
        } ]
      } ],
      "subjectType": [ "Patient" ],
      "item": [ {
        "linkId": "1766749",
        "prefix": "400",
        "text": "Have you got pain in the spine?",
        "type": "choice",
        "required": true,
        "repeats": false,
        "option": [ {
          "valueString": "yes, Selected: false"
        }, {
          "valueString": "not sure, Selected: false"
        }, {
          "valueString": "no, Selected: true"
        } ]
      } ]
    }
  }, {
    "fullUrl": "urn:uuid:20dfcb85-e9b3-413e-8712-3914f7d90d5a",
    "resource": {
      "resourceType": "QuestionnaireResponse",
      "id": "20dfcb85-e9b3-413e-8712-3914f7d90d5a",
      "identifier": {
        "value": "1766749"
      },
      "questionnaire": {
        "reference": "urn:uuid:49ea7396-b7ac-462a-8489-f58866c6f706"
      },
      "status": "completed",
      "subject": {
        "reference": "urn:uuid:66460de9-757a-47f6-adab-7f0ca00219a7"
      },
      "context": {
        "reference": "urn:uuid:0270882a-086c-4d2c-8114-aa088ce76d9e"
      },
      "authored": "2021-08-03T13:04:53+00:00",
      "item": [ {
        "linkId": "Tx220168",
        "text": "Have you got pain that is getting worse?",
        "answer": [ {
          "valueString": "no"
        } ]
      } ]
    }
  }, {
    "fullUrl": "urn:uuid:49ea7396-b7ac-462a-8489-f58866c6f706",
    "resource": {
      "resourceType": "Questionnaire",
      "id": "49ea7396-b7ac-462a-8489-f58866c6f706",
      "identifier": [ {
        "value": "1766749"
      } ],
      "version": "2021-08-03T13:04:53.000Z",
      "status": "active",
      "experimental": false,
      "date": "2021-08-03T13:04:53+00:00",
      "publisher": "User ID: '922' User name: 'AndrewJ.Walford' User skill set: 'T4'",
      "lastReviewDate": "2021-08-03",
      "contact": [ {
        "telecom": [ {
          "system": "phone",
          "value": "07798501130"
        } ]
      } ],
      "subjectType": [ "Patient" ],
      "item": [ {
        "linkId": "1766749",
        "prefix": "300",
        "text": "Have you got pain that is getting worse?",
        "type": "choice",
        "required": true,
        "repeats": false,
        "option": [ {
          "valueString": "yes, Selected: false"
        }, {
          "valueString": "not sure, Selected: false"
        }, {
          "valueString": "no, Selected: true"
        } ]
      } ]
    }
  }, {
    "fullUrl": "urn:uuid:a61e07a1-17fa-4c32-a139-ef12ca90835e",
    "resource": {
      "resourceType": "QuestionnaireResponse",
      "id": "a61e07a1-17fa-4c32-a139-ef12ca90835e",
      "identifier": {
        "value": "1766749"
      },
      "questionnaire": {
        "reference": "urn:uuid:22afd069-4b9c-44b1-a88b-ea9dff092b1c"
      },
      "status": "completed",
      "subject": {
        "reference": "urn:uuid:66460de9-757a-47f6-adab-7f0ca00219a7"
      },
      "context": {
        "reference": "urn:uuid:0270882a-086c-4d2c-8114-aa088ce76d9e"
      },
      "authored": "2021-08-03T13:04:53+00:00",
      "item": [ {
        "linkId": "Tx1122",
        "text": "Have you felt hot or feverish at any time in the last 12 hours?",
        "answer": [ {
          "valueString": "no"
        } ]
      } ]
    }
  }, {
    "fullUrl": "urn:uuid:22afd069-4b9c-44b1-a88b-ea9dff092b1c",
    "resource": {
      "resourceType": "Questionnaire",
      "id": "22afd069-4b9c-44b1-a88b-ea9dff092b1c",
      "identifier": [ {
        "value": "1766749"
      } ],
      "version": "2021-08-03T13:04:53.000Z",
      "status": "active",
      "experimental": false,
      "date": "2021-08-03T13:04:53+00:00",
      "publisher": "User ID: '922' User name: 'AndrewJ.Walford' User skill set: 'T4'",
      "lastReviewDate": "2021-08-03",
      "contact": [ {
        "telecom": [ {
          "system": "phone",
          "value": "07798501130"
        } ]
      } ],
      "subjectType": [ "Patient" ],
      "item": [ {
        "linkId": "1766749",
        "prefix": "500",
        "text": "Have you felt hot or feverish at any time in the last 12 hours?",
        "type": "choice",
        "required": true,
        "repeats": false,
        "option": [ {
          "valueString": "yes - temperature not taken, Selected: false"
        }, {
          "valueString": "yes - temperature taken (specify), Selected: false"
        }, {
          "valueString": "not sure, Selected: false"
        }, {
          "valueString": "no, Selected: true"
        } ]
      } ]
    }
  }, {
    "fullUrl": "urn:uuid:ac4adfaf-3762-4961-b300-6a9863971a36",
    "resource": {
      "resourceType": "QuestionnaireResponse",
      "id": "ac4adfaf-3762-4961-b300-6a9863971a36",
      "identifier": {
        "value": "1766749"
      },
      "questionnaire": {
        "reference": "urn:uuid:74eee6bc-c1bd-4c70-a502-39c947efca7e"
      },
      "status": "completed",
      "subject": {
        "reference": "urn:uuid:66460de9-757a-47f6-adab-7f0ca00219a7"
      },
      "context": {
        "reference": "urn:uuid:0270882a-086c-4d2c-8114-aa088ce76d9e"
      },
      "authored": "2021-08-03T13:04:53+00:00",
      "item": [ {
        "linkId": "Tx1233",
        "text": "Have you had a back injury IN THE LAST 4 WEEKS?",
        "answer": [ {
          "valueString": "no"
        } ]
      } ]
    }
  }, {
    "fullUrl": "urn:uuid:74eee6bc-c1bd-4c70-a502-39c947efca7e",
    "resource": {
      "resourceType": "Questionnaire",
      "id": "74eee6bc-c1bd-4c70-a502-39c947efca7e",
      "identifier": [ {
        "value": "1766749"
      } ],
      "version": "2021-08-03T13:04:53.000Z",
      "status": "active",
      "experimental": false,
      "date": "2021-08-03T13:04:53+00:00",
      "publisher": "User ID: '922' User name: 'AndrewJ.Walford' User skill set: 'T4'",
      "lastReviewDate": "2021-08-03",
      "contact": [ {
        "telecom": [ {
          "system": "phone",
          "value": "07798501130"
        } ]
      } ],
      "subjectType": [ "Patient" ],
      "item": [ {
        "linkId": "1766749",
        "prefix": "900",
        "text": "Have you had a back injury IN THE LAST 4 WEEKS?",
        "type": "choice",
        "required": true,
        "repeats": false,
        "option": [ {
          "valueString": "yes, Selected: false"
        }, {
          "valueString": "not sure, Selected: false"
        }, {
          "valueString": "no, Selected: true"
        } ]
      } ]
    }
  }, {
    "fullUrl": "urn:uuid:0d879afe-0aa0-4f71-a4b3-92b23a7d7e73",
    "resource": {
      "resourceType": "QuestionnaireResponse",
      "id": "0d879afe-0aa0-4f71-a4b3-92b23a7d7e73",
      "identifier": {
        "value": "1766749"
      },
      "questionnaire": {
        "reference": "urn:uuid:030135cb-d47d-4069-a734-bf1c91f7de23"
      },
      "status": "completed",
      "subject": {
        "reference": "urn:uuid:66460de9-757a-47f6-adab-7f0ca00219a7"
      },
      "context": {
        "reference": "urn:uuid:0270882a-086c-4d2c-8114-aa088ce76d9e"
      },
      "authored": "2021-08-03T13:04:53+00:00",
      "item": [ {
        "linkId": "Tx2947",
        "text": "Have you had any change of medication IN THE LAST 2 WEEKS?",
        "answer": [ {
          "valueString": "no"
        } ]
      } ]
    }
  }, {
    "fullUrl": "urn:uuid:030135cb-d47d-4069-a734-bf1c91f7de23",
    "resource": {
      "resourceType": "Questionnaire",
      "id": "030135cb-d47d-4069-a734-bf1c91f7de23",
      "identifier": [ {
        "value": "1766749"
      } ],
      "version": "2021-08-03T13:04:53.000Z",
      "status": "active",
      "experimental": false,
      "date": "2021-08-03T13:04:53+00:00",
      "publisher": "User ID: '922' User name: 'AndrewJ.Walford' User skill set: 'T4'",
      "lastReviewDate": "2021-08-03",
      "contact": [ {
        "telecom": [ {
          "system": "phone",
          "value": "07798501130"
        } ]
      } ],
      "subjectType": [ "Patient" ],
      "item": [ {
        "linkId": "1766749",
        "prefix": "1000",
        "text": "Have you had any change of medication IN THE LAST 2 WEEKS?",
        "type": "choice",
        "required": true,
        "repeats": false,
        "option": [ {
          "valueString": "started new medication, Selected: false"
        }, {
          "valueString": "changed the dose of medication, Selected: false"
        }, {
          "valueString": "stopped medication, Selected: false"
        }, {
          "valueString": "not sure, Selected: false"
        }, {
          "valueString": "no, Selected: true"
        } ]
      } ]
    }
  }, {
    "fullUrl": "urn:uuid:d1e35126-a8d1-47ad-ae7c-ccb94fe40fd4",
    "resource": {
      "resourceType": "QuestionnaireResponse",
      "id": "d1e35126-a8d1-47ad-ae7c-ccb94fe40fd4",
      "identifier": {
        "value": "1766749"
      },
      "questionnaire": {
        "reference": "urn:uuid:3c6d3c4e-ffb8-4082-b53a-66c6095b5928"
      },
      "status": "completed",
      "subject": {
        "reference": "urn:uuid:66460de9-757a-47f6-adab-7f0ca00219a7"
      },
      "context": {
        "reference": "urn:uuid:0270882a-086c-4d2c-8114-aa088ce76d9e"
      },
      "authored": "2021-08-03T13:04:53+00:00",
      "item": [ {
        "linkId": "Tx221449",
        "text": "STRING:SDPCFullPrimaryCareassessmentandprescribingcapability",
        "answer": [ {
          "valueString": "\"\"PC full Primary Care assessment and prescribing capability\"\""
        } ]
      } ]
    }
  }, {
    "fullUrl": "urn:uuid:3c6d3c4e-ffb8-4082-b53a-66c6095b5928",
    "resource": {
      "resourceType": "Questionnaire",
      "id": "3c6d3c4e-ffb8-4082-b53a-66c6095b5928",
      "identifier": [ {
        "value": "1766749"
      } ],
      "version": "2021-08-03T13:04:53.000Z",
      "status": "active",
      "experimental": false,
      "date": "2021-08-03T13:04:53+00:00",
      "publisher": "User ID: '922' User name: 'AndrewJ.Walford' User skill set: 'T4'",
      "lastReviewDate": "2021-08-03",
      "contact": [ {
        "telecom": [ {
          "system": "phone",
          "value": "07798501130"
        } ]
      } ],
      "subjectType": [ "Patient" ],
      "item": [ {
        "linkId": "1766749",
        "prefix": "1200",
        "text": "STRING:SDPCFullPrimaryCareassessmentandprescribingcapability",
        "type": "choice",
        "required": true,
        "repeats": false,
        "option": [ {
          "valueString": "\"\"PC full Primary Care assessment and prescribing capability\"\", Selected: true"
        } ]
      } ]
    }
  }, {
    "fullUrl": "urn:uuid:d8a7b58a-d464-47fc-aa4e-6b5c4f24a71b",
    "resource": {
      "resourceType": "QuestionnaireResponse",
      "id": "d8a7b58a-d464-47fc-aa4e-6b5c4f24a71b",
      "identifier": {
        "value": "1766749"
      },
      "questionnaire": {
        "reference": "urn:uuid:7dc28934-5c64-4279-b06a-fa39735a7278"
      },
      "status": "completed",
      "subject": {
        "reference": "urn:uuid:66460de9-757a-47f6-adab-7f0ca00219a7"
      },
      "context": {
        "reference": "urn:uuid:0270882a-086c-4d2c-8114-aa088ce76d9e"
      },
      "authored": "2021-08-03T13:04:53+00:00"
    }
  }, {
    "fullUrl": "urn:uuid:7dc28934-5c64-4279-b06a-fa39735a7278",
    "resource": {
      "resourceType": "Questionnaire",
      "id": "7dc28934-5c64-4279-b06a-fa39735a7278",
      "identifier": [ {
        "value": "1766749"
      } ],
      "version": "2021-08-03T13:04:53.000Z",
      "status": "active",
      "experimental": false,
      "date": "2021-08-03T13:04:53+00:00",
      "publisher": "User ID: '922' User name: 'AndrewJ.Walford' User skill set: 'T4'",
      "lastReviewDate": "2021-08-03",
      "contact": [ {
        "telecom": [ {
          "system": "phone",
          "value": "07798501130"
        } ]
      } ],
      "subjectType": [ "Patient" ]
    }
  }, {
    "fullUrl": "urn:uuid:83447703-bf37-40e4-a5ec-afd8592eccbc",
    "resource": {
      "resourceType": "QuestionnaireResponse",
      "id": "83447703-bf37-40e4-a5ec-afd8592eccbc",
      "identifier": {
        "value": "1766749"
      },
      "questionnaire": {
        "reference": "urn:uuid:88ef8ec5-e9f6-4340-b3ba-2cb0fd03f963"
      },
      "status": "completed",
      "subject": {
        "reference": "urn:uuid:66460de9-757a-47f6-adab-7f0ca00219a7"
      },
      "context": {
        "reference": "urn:uuid:0270882a-086c-4d2c-8114-aa088ce76d9e"
      },
      "authored": "2021-08-03T13:04:53+00:00",
      "item": [ {
        "linkId": "N/A"
      } ]
    }
  }, {
    "fullUrl": "urn:uuid:88ef8ec5-e9f6-4340-b3ba-2cb0fd03f963",
    "resource": {
      "resourceType": "Questionnaire",
      "id": "88ef8ec5-e9f6-4340-b3ba-2cb0fd03f963",
      "identifier": [ {
        "value": "1766749"
      } ],
      "version": "2021-08-03T13:04:53.000Z",
      "status": "active",
      "experimental": false,
      "date": "2021-08-03T13:04:53+00:00",
      "publisher": "User ID: '922' User name: 'AndrewJ.Walford' User skill set: 'T4'",
      "lastReviewDate": "2021-08-03",
      "contact": [ {
        "telecom": [ {
          "system": "phone",
          "value": "07798501130"
        } ]
      } ],
      "subjectType": [ "Patient" ],
      "item": [ {
        "linkId": "1766749",
        "type": "choice",
        "required": true,
        "repeats": false,
        "option": [ {
          "valueString": ", Selected: false"
        } ]
      } ]
    }
  }, {
    "fullUrl": "urn:uuid:acc75b6f-3845-43d3-97f4-d9ed89688f4a",
    "resource": {
      "resourceType": "QuestionnaireResponse",
      "id": "acc75b6f-3845-43d3-97f4-d9ed89688f4a",
      "identifier": {
        "value": "1766749"
      },
      "questionnaire": {
        "reference": "urn:uuid:1af20f54-d8d1-44d0-9806-68ab8e30de8f"
      },
      "status": "completed",
      "subject": {
        "reference": "urn:uuid:66460de9-757a-47f6-adab-7f0ca00219a7"
      },
      "context": {
        "reference": "urn:uuid:0270882a-086c-4d2c-8114-aa088ce76d9e"
      },
      "authored": "2021-08-03T13:04:53+00:00"
    }
  }, {
    "fullUrl": "urn:uuid:1af20f54-d8d1-44d0-9806-68ab8e30de8f",
    "resource": {
      "resourceType": "Questionnaire",
      "id": "1af20f54-d8d1-44d0-9806-68ab8e30de8f",
      "identifier": [ {
        "value": "1766749"
      } ],
      "version": "2021-08-03T13:04:53.000Z",
      "status": "active",
      "experimental": false,
      "date": "2021-08-03T13:04:53+00:00",
      "publisher": "User ID: '922' User name: 'AndrewJ.Walford' User skill set: 'T4'",
      "lastReviewDate": "2021-08-03",
      "contact": [ {
        "telecom": [ {
          "system": "phone",
          "value": "07798501130"
        } ]
      } ],
      "subjectType": [ "Patient" ]
    }
  }, {
    "fullUrl": "urn:uuid:9051356c-b20b-4719-a641-66761c363c67",
    "resource": {
      "resourceType": "Observation",
      "id": "9051356c-b20b-4719-a641-66761c363c67",
      "status": "final",
      "code": {
        "coding": [ {
          "system": "http://snomed.info/sct",
          "code": "33962009",
          "display": "Presenting complaint"
        } ]
      },
      "subject": {
        "reference": "urn:uuid:66460de9-757a-47f6-adab-7f0ca00219a7"
      },
      "context": {
        "reference": "urn:uuid:0270882a-086c-4d2c-8114-aa088ce76d9e"
      }
    }
  }, {
    "fullUrl": "urn:uuid:540e40db-1f4e-4962-8df9-4c8517baf3d0",
    "resource": {
      "resourceType": "PractitionerRole",
      "id": "540e40db-1f4e-4962-8df9-4c8517baf3d0",
      "practitioner": {
        "reference": "urn:uuid:81cebd2a-4935-4e3d-9de0-354bf3bb5c7f"
      },
      "organization": {
        "reference": "urn:uuid:f97dcf59-af47-44cc-9393-0800f050f75e"
      },
      "code": [ {
        "coding": [ {
          "system": "2.16.840.1.113883.2.1.3.2.4.17.339",
          "code": "NP",
          "display": "Nurse Practitioner"
        } ]
      } ]
    }
  }, {
    "fullUrl": "urn:uuid:f97dcf59-af47-44cc-9393-0800f050f75e",
    "resource": {
      "resourceType": "Organization",
      "id": "f97dcf59-af47-44cc-9393-0800f050f75e",
      "identifier": [ {
        "value": "RX7"
      } ],
      "name": "NWAS 111"
    }
  }, {
    "fullUrl": "urn:uuid:81f61517-0c2e-4fce-a42f-7c4edfbf0a39",
    "resource": {
      "resourceType": "RelatedPerson",
      "id": "81f61517-0c2e-4fce-a42f-7c4edfbf0a39",
      "patient": {
        "reference": "urn:uuid:66460de9-757a-47f6-adab-7f0ca00219a7"
      },
      "relationship": {
        "coding": [ {
          "system": "http://hl7.org/fhir/v2/0131",
          "code": "C",
          "display": "Emergency Contact"
        } ]
      },
      "telecom": [ {
        "system": "phone",
        "value": "tel:07798501130"
      } ]
    }
  }, {
    "fullUrl": "urn:uuid:a0977b44-ff12-4d83-8153-6a621a4fec71",
    "resource": {
      "resourceType": "Device",
      "id": "a0977b44-ff12-4d83-8153-6a621a4fec71",
      "model": "111 Adaptor",
      "version": "0.11.0"
    }
  }, {
    "fullUrl": "urn:uuid:2cba225c-4a17-443c-b422-5b24645d334c",
    "resource": {
      "resourceType": "List",
      "id": "2cba225c-4a17-443c-b422-5b24645d334c",
      "status": "current",
      "mode": "working",
      "title": "111 Report List",
      "code": {
        "coding": [ {
          "system": "http://snomed.info/sct",
          "code": "225390008",
          "display": "Triage"
        } ]
      },
      "subject": {
        "reference": "urn:uuid:66460de9-757a-47f6-adab-7f0ca00219a7"
      },
      "encounter": {
        "reference": "urn:uuid:0270882a-086c-4d2c-8114-aa088ce76d9e"
      },
      "date": "2021-10-01T07:34:01+00:00",
      "source": {
        "reference": "urn:uuid:a0977b44-ff12-4d83-8153-6a621a4fec71"
      },
      "orderedBy": {
        "coding": [ {
          "system": "http://hl7.org/fhir/list-order",
          "code": "event-date",
          "display": "Sorted by Event Date"
        } ]
      },
      "entry": [ {
        "item": {
          "reference": "urn:uuid:81f61517-0c2e-4fce-a42f-7c4edfbf0a39"
        }
      }, {
        "item": {
          "reference": "urn:uuid:9051356c-b20b-4719-a641-66761c363c67"
        }
      }, {
        "item": {
          "reference": "urn:uuid:06a822a9-886d-4726-a48e-412e97f5b7c0"
        }
      }, {
        "item": {
          "reference": "urn:uuid:247a1b4f-ee33-46bc-88c2-60aea7bba81a"
        }
      }, {
        "item": {
          "reference": "urn:uuid:81cebd2a-4935-4e3d-9de0-354bf3bb5c7f"
        }
      }, {
        "item": {
          "reference": "urn:uuid:f97dcf59-af47-44cc-9393-0800f050f75e"
        }
      }, {
        "item": {
          "reference": "urn:uuid:d71a795a-8924-4d8b-952a-946703ad1a7e"
        }
      }, {
        "item": {
          "reference": "urn:uuid:fa53f55f-adbe-4676-a741-39ddc74b6e57"
        }
      }, {
        "item": {
          "reference": "urn:uuid:7ec6847b-6b18-478b-8fc1-b4d2c38d618d"
        }
      }, {
        "item": {
          "reference": "urn:uuid:e315a2c1-e11f-478c-9a86-671560bfb4b5"
        }
      }, {
        "item": {
          "reference": "urn:uuid:74eee6bc-c1bd-4c70-a502-39c947efca7e"
        }
      }, {
        "item": {
          "reference": "urn:uuid:c3c31e73-fcfe-4eea-8834-906318a3ae57"
        }
      }, {
        "item": {
          "reference": "urn:uuid:c0bec2b0-deb4-45f4-b936-0e4e0f3c86d7"
        }
      }, {
        "item": {
          "reference": "urn:uuid:81c351f6-2076-406d-8487-ef4bc99e67ad"
        }
      }, {
        "item": {
          "reference": "urn:uuid:4fe8b915-02f9-4ca7-859e-1d03cf01fd10"
        }
      }, {
        "item": {
          "reference": "urn:uuid:7dc28934-5c64-4279-b06a-fa39735a7278"
        }
      }, {
        "item": {
          "reference": "urn:uuid:7c0a86d9-6a5b-4729-bafe-f929412226c2"
        }
      }, {
        "item": {
          "reference": "urn:uuid:a61e07a1-17fa-4c32-a139-ef12ca90835e"
        }
      }, {
        "item": {
          "reference": "urn:uuid:1a6ffb7a-6fb0-4568-bb99-2506ae04beb3"
        }
      }, {
        "item": {
          "reference": "urn:uuid:98eafdd1-18bd-4bfa-876e-6c92f6551327"
        }
      }, {
        "item": {
          "reference": "urn:uuid:723c2a1a-1d33-48df-9d15-3bb86028ef51"
        }
      }, {
        "item": {
          "reference": "urn:uuid:9fa06274-01f5-49ed-9c16-43fe8cc1d003"
        }
      }, {
        "item": {
          "reference": "urn:uuid:9f20b180-9b86-494c-8637-86e2d0b0ed4f"
        }
      }, {
        "item": {
          "reference": "urn:uuid:94f1964f-2e6a-49ed-a0fb-81d984345cc2"
        }
      }, {
        "item": {
          "reference": "urn:uuid:02955de4-e52e-4634-8a5d-cde8f48326aa"
        }
      }, {
        "item": {
          "reference": "urn:uuid:49ea7396-b7ac-462a-8489-f58866c6f706"
        }
      }, {
        "item": {
          "reference": "urn:uuid:1b10bdc3-59dd-4af5-9994-127277cee50a"
        }
      }, {
        "item": {
          "reference": "urn:uuid:0ad8243f-e1b5-4fd4-af55-670a802f47ec"
        }
      }, {
        "item": {
          "reference": "urn:uuid:bb191585-4001-41e7-85cf-79f561405762"
        }
      }, {
        "item": {
          "reference": "urn:uuid:0e0bc89c-a733-4b43-8a2d-3d44b2bc308c"
        }
      }, {
        "item": {
          "reference": "urn:uuid:8e8ce2e5-c083-4ea5-9f80-f39542c10119"
        }
      }, {
        "item": {
          "reference": "urn:uuid:3e9ef283-4c6b-42ce-a736-0d100ca90535"
        }
      }, {
        "item": {
          "reference": "urn:uuid:98872bb6-d25f-40de-824e-ad7fcee4d34b"
        }
      }, {
        "item": {
          "reference": "urn:uuid:83447703-bf37-40e4-a5ec-afd8592eccbc"
        }
      }, {
        "item": {
          "reference": "urn:uuid:6df70296-791c-44d3-a95a-1d584b84228d"
        }
      }, {
        "item": {
          "reference": "urn:uuid:45343fdc-ed85-4681-ad38-968fc2e96368"
        }
      }, {
        "item": {
          "reference": "urn:uuid:3c6d3c4e-ffb8-4082-b53a-66c6095b5928"
        }
      }, {
        "item": {
          "reference": "urn:uuid:030135cb-d47d-4069-a734-bf1c91f7de23"
        }
      }, {
        "item": {
          "reference": "urn:uuid:20dfcb85-e9b3-413e-8712-3914f7d90d5a"
        }
      }, {
        "item": {
          "reference": "urn:uuid:53519775-37dc-4857-a9c5-52b78fc6aaa9"
        }
      }, {
        "item": {
          "reference": "urn:uuid:6ef17e62-e8f8-478d-b9c3-7f8a0cc09a49"
        }
      }, {
        "item": {
          "reference": "urn:uuid:f7fd372f-20f7-45c6-bd6d-03b880a6dd50"
        }
      }, {
        "item": {
          "reference": "urn:uuid:2077b494-c9d1-43db-bf64-5202771c3cb5"
        }
      }, {
        "item": {
          "reference": "urn:uuid:787051a5-76cc-4645-a3c8-7b7254352cb8"
        }
      }, {
        "item": {
          "reference": "urn:uuid:69b1dcb3-fe4e-41d5-89f8-4d059584a6a7"
        }
      }, {
        "item": {
          "reference": "urn:uuid:4babd098-4fb8-4476-a4b1-a57c36e7c048"
        }
      }, {
        "item": {
          "reference": "urn:uuid:3d45a7c5-38e4-4058-9ea0-c20afef89418"
        }
      }, {
        "item": {
          "reference": "urn:uuid:d8a7b58a-d464-47fc-aa4e-6b5c4f24a71b"
        }
      }, {
        "item": {
          "reference": "urn:uuid:9b5f9d59-2e1e-44dd-a0b9-a42dc4953ba5"
        }
      }, {
        "item": {
          "reference": "urn:uuid:d1e35126-a8d1-47ad-ae7c-ccb94fe40fd4"
        }
      }, {
        "item": {
          "reference": "urn:uuid:88ef8ec5-e9f6-4340-b3ba-2cb0fd03f963"
        }
      }, {
        "item": {
          "reference": "urn:uuid:837d8572-9163-4d81-854e-2c457f8bf5b8"
        }
      }, {
        "item": {
          "reference": "urn:uuid:f4db8e6f-123d-4f60-96ce-89aaff270c37"
        }
      }, {
        "item": {
          "reference": "urn:uuid:22afd069-4b9c-44b1-a88b-ea9dff092b1c"
        }
      }, {
        "item": {
          "reference": "urn:uuid:ac4adfaf-3762-4961-b300-6a9863971a36"
        }
      }, {
        "item": {
          "reference": "urn:uuid:d9d4b7cb-f21a-4bec-ac50-ee002c851518"
        }
      }, {
        "item": {
          "reference": "urn:uuid:4e0200a7-90d0-4a20-8c1f-4c6273be4235"
        }
      }, {
        "item": {
          "reference": "urn:uuid:02277f92-3756-49e8-9f70-6efbda746064"
        }
      }, {
        "item": {
          "reference": "urn:uuid:b39d31b8-5b26-4912-b00b-a62a919929e2"
        }
      }, {
        "item": {
          "reference": "urn:uuid:fb3f7e7a-c5ad-42d5-8553-ccb2436ee448"
        }
      }, {
        "item": {
          "reference": "urn:uuid:1af20f54-d8d1-44d0-9806-68ab8e30de8f"
        }
      }, {
        "item": {
          "reference": "urn:uuid:24da5306-088c-4a18-afca-e83214bbd34d"
        }
      }, {
        "item": {
          "reference": "urn:uuid:aa2ec6b2-faf0-4e60-957e-9cabc4a29436"
        }
      }, {
        "item": {
          "reference": "urn:uuid:f73ba1e3-a9c8-46b5-b1ee-f582dd10df26"
        }
      }, {
        "item": {
          "reference": "urn:uuid:5719185c-92c6-4dcd-b768-0c01cd06c8f8"
        }
      }, {
        "item": {
          "reference": "urn:uuid:ebd17328-5a16-499c-aea0-98cff0128f92"
        }
      }, {
        "item": {
          "reference": "urn:uuid:2414507d-357a-4b34-9a10-1af4b7338dc5"
        }
      }, {
        "item": {
          "reference": "urn:uuid:5bf4dd3f-1ccf-4810-8d70-8cce1964e23f"
        }
      }, {
        "item": {
          "reference": "urn:uuid:0d879afe-0aa0-4f71-a4b3-92b23a7d7e73"
        }
      }, {
        "item": {
          "reference": "urn:uuid:36394866-9844-4303-9551-8205ee1e3d81"
        }
      }, {
        "item": {
          "reference": "urn:uuid:acc75b6f-3845-43d3-97f4-d9ed89688f4a"
        }
      }, {
        "item": {
          "reference": "urn:uuid:a183a07b-75bf-414a-9bd8-8f51d003e7b5"
        }
      }, {
        "item": {
          "reference": "urn:uuid:4e43931a-5ade-468b-aa2c-6b0ea5db5c7c"
        }
      } ]
    }
  } ]
}