{
  "resourceType": "Bundle",
  "identifier": {
    "type": {
      "text": "ClinicalDocument VersionNumber"
    },
    "value": "1"
  },
  "type": "message",
  "entry": [ {
    "fullUrl": "urn:uuid:05040617-33BA-4344-AA59-281CF2FE63CA",
    "resource": {
      "resourceType": "MessageHeader",
      "id": "05040617-33BA-4344-AA59-281CF2FE63CA",
      "event": {
        "system": "https://fhir.nhs.uk/STU3/CodeSystem/EventType-1",
        "code": "referral-1",
        "display": "Referral"
      },
      "destination": [ {
        "endpoint": "urn:nhs-uk:addressing:ods:FHR04RPX:DOSServiceID:2000038667"
      } ],
      "timestamp": "2021-04-06T15:19:34.000+00:00",
      "source": {
        "name": "NHS 111 Adaptor",
        "endpoint": "http://localhost:8080/report"
      },
      "reason": {
        "coding": [ {
          "system": "urn:nhs-itk:ns:201005:interaction",
          "code": "urn:nhs-itk:interaction:primaryOutofHourRecipientNHS111CDADocument-v2-0"
        } ]
      }
    }
  }, {
    "fullUrl": "urn:uuid:94b325a6-70a7-4702-86d2-94839bd1c8bd",
    "resource": {
      "resourceType": "Encounter",
      "id": "94b325a6-70a7-4702-86d2-94839bd1c8bd",
      "identifier": [ {
        "system": "2.16.840.1.113883.2.1.3.2.4.18.34",
        "value": "AdastraCaseGUID34"
      }, {
        "system": "2.16.840.1.113883.2.1.3.2.4.18.35",
        "value": "AdastraCaseID35"
      }, {
        "system": "2.16.840.1.113883.2.1.3.2.4.18.49",
        "value": "AdastraCaseGUID49"
      } ],
      "status": "finished",
      "type": [ {
        "text": "111 Encounter Referral"
      } ],
      "subject": {
        "reference": "urn:uuid:2a4d1266-f546-4af2-aa67-43d1a0088807"
      },
      "participant": [ {
        "type": [ {
          "coding": [ {
            "system": "http://hl7.org/fhir/ValueSet/encounter-participant-type",
            "code": "PPRF",
            "display": "Author"
          } ]
        } ],
        "individual": {
          "reference": "urn:uuid:7ec72590-009b-462f-850c-4c8359804c27"
        }
      }, {
        "type": [ {
          "text": "Informant"
        } ],
        "individual": {
          "reference": "urn:uuid:8eb8889a-4582-4ad7-8b0a-fadee007e3f8"
        }
      }, {
        "type": [ {
          "coding": [ {
            "system": "http://hl7.org/fhir/ValueSet/encounter-participant-type",
            "code": "ATND",
            "display": "Responsible Party"
          } ]
        } ],
        "individual": {
          "reference": "urn:uuid:5a14c67c-8549-43da-b608-3e33a6b9ad63"
        }
      } ],
      "period": {
        "start": "2021-04-06T15:19:34+00:00"
      },
      "location": [ {
        "location": {
          "reference": "urn:uuid:490e8106-89f6-404b-a2fc-6af51d7ef1cd"
        },
        "status": "completed"
      } ],
      "serviceProvider": {
        "reference": "urn:uuid:83a4f6b3-7d6f-48b0-b8b5-40627ad1b3fb"
      }
    }
  }, {
    "fullUrl": "urn:uuid:83a4f6b3-7d6f-48b0-b8b5-40627ad1b3fb",
    "resource": {
      "resourceType": "Organization",
      "id": "83a4f6b3-7d6f-48b0-b8b5-40627ad1b3fb",
      "active": true,
      "type": [ {
        "text": "CST"
      } ],
      "name": "CustodianName"
    }
  }, {
    "fullUrl": "urn:uuid:7ec72590-009b-462f-850c-4c8359804c27",
    "resource": {
      "resourceType": "Practitioner",
      "id": "7ec72590-009b-462f-850c-4c8359804c27",
      "active": true,
      "name": [ {
        "use": "official",
        "family": "AuthorAssignedPerson FamilyName",
        "given": [ "AuthorAssignedPerson GivenName" ]
      } ]
    }
  }, {
    "fullUrl": "urn:uuid:8eb8889a-4582-4ad7-8b0a-fadee007e3f8",
    "resource": {
      "resourceType": "RelatedPerson",
      "id": "8eb8889a-4582-4ad7-8b0a-fadee007e3f8",
      "active": true,
      "patient": {
        "reference": "urn:uuid:2a4d1266-f546-4af2-aa67-43d1a0088807"
      },
      "relationship": {
        "coding": [ {
          "system": "2.16.840.1.113883.2.1.3.2.4.16.45",
          "code": "16",
          "display": "Relative"
        } ]
      },
      "name": [ {
        "text": "RelatedPerson Name"
      } ],
      "telecom": [ {
        "system": "phone",
        "value": "tel:01111111111",
        "use": "home"
      } ],
      "gender": "unknown"
    }
  }, {
    "fullUrl": "urn:uuid:5a14c67c-8549-43da-b608-3e33a6b9ad63",
    "resource": {
      "resourceType": "Practitioner",
      "id": "5a14c67c-8549-43da-b608-3e33a6b9ad63",
      "active": true,
      "name": [ {
        "use": "official",
        "family": "ResponsablePartyMD FamilyName",
        "given": [ "ResponsablePartyMD GivenName" ]
      } ]
    }
  }, {
    "fullUrl": "urn:uuid:490e8106-89f6-404b-a2fc-6af51d7ef1cd",
    "resource": {
      "resourceType": "Location",
      "id": "490e8106-89f6-404b-a2fc-6af51d7ef1cd",
      "name": "Incident Location",
      "address": {
        "type": "physical",
        "line": [ "HealthCareFacility AddressLine1", "HealthCareFacility AddressLine2", "HealthCareFacility AddressLine3", "HealthCareFacility AddressLine4", "HealthCareFacility AddressLine5" ],
        "postalCode": "LOH25 4NS"
      }
    }
  }, {
    "fullUrl": "urn:uuid:2a4d1266-f546-4af2-aa67-43d1a0088807",
    "resource": {
      "resourceType": "Patient",
      "id": "2a4d1266-f546-4af2-aa67-43d1a0088807",
      "active": true,
      "name": [ {
        "use": "official",
        "family": "Patient Family Name",
        "given": [ "Patient Given Name" ]
      } ],
      "telecom": [ {
        "system": "phone",
        "value": "tel:000000000000",
        "use": "home"
      }, {
        "system": "phone",
        "value": "tel:000000000000"
      } ],
      "gender": "other",
      "birthDate": "1990-02-02",
      "address": [ {
        "use": "home",
        "line": [ "Home Address Line 1", "Home Address Line 2", "Home Address Line 3", "Home Address Line 4", "Home Address Line 5" ],
        "postalCode": "HA25 4NS"
      }, {
        "type": "physical",
        "line": [ "Home Address Line 1", "Home Address Line 2", "Home Address Line 3", "Home Address Line 4", "Home Address Line 5" ],
        "postalCode": "PH25 4NS"
      } ]
    }
  }, {
    "fullUrl": "urn:uuid:164ff404-9664-4373-9548-52bfe7fcde4d",
    "resource": {
      "resourceType": "HealthcareService",
      "id": "164ff404-9664-4373-9548-52bfe7fcde4d",
      "active": true,
      "providedBy": {
        "reference": "urn:uuid:65d44bff-6e41-442e-b599-aa954a216285"
      },
      "location": [ {
        "reference": "urn:uuid:92c7fd41-2eff-42a9-9741-bc3f1d882a64"
      } ],
      "name": "InformationRecipient IntendedRecipient Name FHR0"
    }
  }, {
    "fullUrl": "urn:uuid:92c7fd41-2eff-42a9-9741-bc3f1d882a64",
    "resource": {
      "resourceType": "Location",
      "id": "92c7fd41-2eff-42a9-9741-bc3f1d882a64",
      "managingOrganization": {
        "reference": "urn:uuid:65d44bff-6e41-442e-b599-aa954a216285"
      }
    }
  }, {
    "fullUrl": "urn:uuid:65d44bff-6e41-442e-b599-aa954a216285",
    "resource": {
      "resourceType": "Organization",
      "id": "65d44bff-6e41-442e-b599-aa954a216285",
      "identifier": [ {
        "value": "FHR04RPX"
      } ],
      "type": [ {
        "coding": [ {
          "code": "PRCP",
          "display": "InformationRecipient IntendedRecipient Name FHR0"
        } ]
      } ],
      "name": "InformationRecipient IntendedRecipient Name FHR0"
    }
  }, {
    "fullUrl": "urn:uuid:9985d474-d4e9-4714-a90e-c9e67e352d7b",
    "resource": {
      "resourceType": "ReferralRequest",
      "id": "9985d474-d4e9-4714-a90e-c9e67e352d7b",
      "status": "active",
      "intent": "plan",
      "priority": "routine",
      "subject": {
        "reference": "urn:uuid:2a4d1266-f546-4af2-aa67-43d1a0088807"
      },
      "context": {
        "reference": "urn:uuid:94b325a6-70a7-4702-86d2-94839bd1c8bd"
      },
      "occurrencePeriod": {
        "start": "2021-10-11T06:41:48+00:00",
        "end": "2021-10-11T07:41:48+00:00"
      },
      "authoredOn": "2021-04-06T15:19:29+00:00",
      "requester": {
        "agent": {
          "reference": "urn:uuid:2f9df190-9db9-4219-99ee-1d12c398cf5c"
        },
        "onBehalfOf": {
          "reference": "urn:uuid:83a4f6b3-7d6f-48b0-b8b5-40627ad1b3fb"
        }
      },
      "recipient": [ {
        "reference": "urn:uuid:164ff404-9664-4373-9548-52bfe7fcde4d"
      } ],
      "reasonReference": [ {
        "reference": "urn:uuid:77b35802-e9ee-4925-a5a4-8109ab36195e"
      } ],
      "supportingInfo": [ {
        "reference": "urn:uuid:68f6c961-b5f0-4b75-9305-3f40bb165827"
      } ]
    }
  }, {
    "fullUrl": "urn:uuid:68f6c961-b5f0-4b75-9305-3f40bb165827",
    "resource": {
      "resourceType": "ProcedureRequest",
      "id": "68f6c961-b5f0-4b75-9305-3f40bb165827",
      "status": "active",
      "intent": "plan",
      "priority": "routine",
      "doNotPerform": false,
      "code": {
        "coding": [ {
          "system": "2.16.840.1.113883.2.1.3.2.4.17.325",
          "code": "DispoCodeDx87",
          "display": "DispoName - Repeat Prescription required within 24 hours"
        } ]
      },
      "subject": {
        "reference": "urn:uuid:2a4d1266-f546-4af2-aa67-43d1a0088807"
      },
      "occurrencePeriod": {
        "start": "2021-10-11T06:41:48+00:00",
        "end": "2021-10-11T07:41:48+00:00"
      },
      "reasonReference": [ {
        "reference": "urn:uuid:77b35802-e9ee-4925-a5a4-8109ab36195e"
      } ]
    }
  }, {
    "fullUrl": "urn:uuid:49577d6c-d37b-4cf3-a346-b1821383d3e3",
    "resource": {
      "resourceType": "Composition",
      "id": "49577d6c-d37b-4cf3-a346-b1821383d3e3",
      "identifier": {
        "use": "usual",
        "value": "E2DF04F7-95CA-40AD-808D-797C0A89E39C"
      },
      "status": "final",
      "type": {
        "coding": [ {
          "system": "http://snomed.info/sct",
          "code": "371531000",
          "display": "Report of clinical encounter (record artifact)"
        } ]
      },
      "subject": {
        "reference": "urn:uuid:2a4d1266-f546-4af2-aa67-43d1a0088807"
      },
      "encounter": {
        "reference": "urn:uuid:94b325a6-70a7-4702-86d2-94839bd1c8bd"
      },
      "date": "2021-10-11T06:41:48+00:00",
      "author": [ {
        "reference": "urn:uuid:7ec72590-009b-462f-850c-4c8359804c27"
      } ],
      "title": "111 Report",
      "confidentiality": "N",
      "section": [ {
        "section": [ {
          "title": "ComponentTitle - Patient's Reported Condition",
          "text": {
            "status": "generated",
            "div": "<div xmlns=\"http://www.w3.org/1999/xhtml\">&lt;content&gt;ComponentText - Pharmacy ITK Testing&lt;/content&gt;\n                                                    &lt;br/&gt;</div>"
          }
        }, {
          "title": "ComponentTitle - Pathways Disposition",
          "text": {
            "status": "generated",
            "div": "<div xmlns=\"http://www.w3.org/1999/xhtml\">ComponentText - Repeat Prescription required within 24 hours (Dx87)                                         &lt;br/&gt;\n                                                    &lt;br/&gt;                                         Selected service: Springvale, Fraser Road, Kings Worthy, Winchester&lt;br/&gt;</div>"
          }
        }, {
          "title": "ComponentTitle - Consultation Summary",
          "text": {
            "status": "generated",
            "div": "<div xmlns=\"http://www.w3.org/1999/xhtml\">ComponentText - Prescription request&lt;br/&gt;Not enough medication until surgery opens&lt;br/&gt;No medication available&lt;br/&gt;Next dose due in over 12 hours time&lt;br/&gt;</div>"
          }
        }, {
          "title": "ComponentTitle - Pathways Assessment",
          "text": {
            "status": "generated",
            "div": "<div xmlns=\"http://www.w3.org/1999/xhtml\">ComponentText - Reason for call menu - continued to next list.&lt;br/&gt;A prescription request was the main reason for the contact.&lt;br/&gt;The main reason for the contact was not a new or worsening illness.&lt;br/&gt;The individual did not have enough medication to last until the surgery next opened.&lt;br/&gt;The medication was suitable for repeat prescribing without further consultation.&lt;br/&gt;The individual had no medication available.&lt;br/&gt;The next dose was due in over 12 hours time.&lt;br/&gt;Instructions given were: The individual needs a repeat prescription.&lt;br/&gt;Directory of Services referral: Springvale, Fraser Road, Kings Worthy, Winchester&lt;br/&gt;</div>"
          }
        }, {
          "title": "ComponentTitle - Advice Given",
          "text": {
            "status": "generated",
            "div": "<div xmlns=\"http://www.w3.org/1999/xhtml\">ComponentText - I will arrange for a clinician or pharmacist to speak to the individual.&lt;br/&gt;IF THE RECOMMENDED TIMEFRAME FALLS OUTSIDE OPENING HOURS: I will arrange for a clinician to speak to the individual.&lt;br/&gt;\n                                                    &lt;br/&gt;</div>"
          }
        }, {
          "title": "ComponentTitle - Information And Advice Given"
        }, {
          "title": "ComponentTitle - Disposition",
          "text": {
            "status": "generated",
            "div": "<div xmlns=\"http://www.w3.org/1999/xhtml\">&lt;content&gt;ComponentText - Repeat Prescription required within 24 hours&lt;br/&gt;\n                                                    &lt;/content&gt;\n                                                    &lt;br/&gt;\n                                                    &lt;br/&gt;</div>"
          }
        } ]
      }, {
        "title": "CarePlan",
        "entry": [ {
          "reference": "urn:uuid:5cae9853-3bd8-4c6d-878c-87c921c8423e"
        } ]
      }, {
        "title": "ReferralRequest",
        "entry": [ {
          "reference": "urn:uuid:9985d474-d4e9-4714-a90e-c9e67e352d7b"
        } ]
      }, {
        "title": "QuestionnaireResponse",
        "entry": [ {
          "reference": "urn:uuid:455d4ab3-4fad-4c85-959b-58982acada15"
        } ]
      }, {
        "title": "QuestionnaireResponse",
        "entry": [ {
          "reference": "urn:uuid:9bc5cb51-90ad-42ab-9ff0-5285228a5bc9"
        } ]
      }, {
        "title": "QuestionnaireResponse",
        "entry": [ {
          "reference": "urn:uuid:1abed79a-0ca8-4a82-8215-2221df92d745"
        } ]
      }, {
        "title": "QuestionnaireResponse",
        "entry": [ {
          "reference": "urn:uuid:b6e3a252-c98d-4b58-93a8-ca6ec7d5c62b"
        } ]
      }, {
        "title": "QuestionnaireResponse",
        "entry": [ {
          "reference": "urn:uuid:3200f739-b150-4e97-b998-e15bbc83d318"
        } ]
      }, {
        "title": "QuestionnaireResponse",
        "entry": [ {
          "reference": "urn:uuid:6a290627-c5cc-44a9-a577-960e84185e9f"
        } ]
      }, {
        "title": "QuestionnaireResponse",
        "entry": [ {
          "reference": "urn:uuid:66207d3f-62b2-4d72-9959-bc4f0eb75b1d"
        } ]
      }, {
        "title": "QuestionnaireResponse",
        "entry": [ {
          "reference": "urn:uuid:65a6e235-8695-4c83-b8da-e69449634860"
        } ]
      }, {
        "title": "QuestionnaireResponse",
        "entry": [ {
          "reference": "urn:uuid:98eb211d-c6fa-411a-919e-0d6801a7865a"
        } ]
      }, {
        "title": "QuestionnaireResponse",
        "entry": [ {
          "reference": "urn:uuid:2fbedccd-2ed1-41bc-9b03-a81d47dfed70"
        } ]
      }, {
        "title": "QuestionnaireResponse",
        "entry": [ {
          "reference": "urn:uuid:1fa88825-27ca-4abf-888f-c6e2c84efd62"
        } ]
      }, {
        "title": "QuestionnaireResponse",
        "entry": [ {
          "reference": "urn:uuid:211d4299-3328-41e1-9795-971ebc52b6a7"
        } ]
      }, {
        "title": "QuestionnaireResponse",
        "entry": [ {
          "reference": "urn:uuid:c810b9af-aa9b-498c-97b4-80a845c31d0e"
        } ]
      }, {
        "title": "QuestionnaireResponse",
        "entry": [ {
          "reference": "urn:uuid:75d8f3c1-4e68-44d0-a0d9-165621baeb20"
        } ]
      }, {
        "title": "QuestionnaireResponse",
        "entry": [ {
          "reference": "urn:uuid:6849eda4-ad52-4aab-bb1c-2eb354e4b4ea"
        } ]
      } ]
    }
  }, {
    "fullUrl": "urn:uuid:5cae9853-3bd8-4c6d-878c-87c921c8423e",
    "resource": {
      "resourceType": "CarePlan",
      "id": "5cae9853-3bd8-4c6d-878c-87c921c8423e",
      "status": "completed",
      "intent": "plan",
      "title": "ComponentTitle - Information And Advice Given",
      "subject": {
        "reference": "urn:uuid:2a4d1266-f546-4af2-aa67-43d1a0088807"
      },
      "context": {
        "reference": "urn:uuid:94b325a6-70a7-4702-86d2-94839bd1c8bd"
      },
      "period": {
        "start": "2021-04-06T15:19:34+00:00"
      },
      "addresses": [ {
        "reference": "urn:uuid:77b35802-e9ee-4925-a5a4-8109ab36195e"
      } ]
    }
  }, {
    "fullUrl": "urn:uuid:2c1c2c8f-45b5-439d-80be-d57cd40f283b",
    "resource": {
      "resourceType": "Consent",
      "id": "2c1c2c8f-45b5-439d-80be-d57cd40f283b",
      "identifier": {
        "use": "usual",
        "value": "E2DF04F7-95CA-40AD-808D-797C0A89E39C"
      },
      "status": "active",
      "patient": {
        "reference": "urn:uuid:2a4d1266-f546-4af2-aa67-43d1a0088807"
      },
      "period": {
        "start": "2021-04-06T15:19:34+00:00"
      },
      "consentingParty": [ {
        "reference": "urn:uuid:2a4d1266-f546-4af2-aa67-43d1a0088807"
      } ],
      "action": [ {
        "coding": [ {
          "system": "http://snomed.info/sct",
          "code": "425691002",
          "display": "Consent given for electronic record sharing"
        } ],
        "text": "Consent given for electronic record sharing"
      } ],
      "organization": [ {
        "reference": "urn:uuid:83a4f6b3-7d6f-48b0-b8b5-40627ad1b3fb"
      } ],
      "policyRule": "http://hl7.org/fhir/ConsentPolicy/opt-out",
      "data": [ {
        "meaning": "related",
        "reference": {
          "reference": "urn:uuid:94b325a6-70a7-4702-86d2-94839bd1c8bd"
        }
      } ]
    }
  }, {
    "fullUrl": "urn:uuid:77b35802-e9ee-4925-a5a4-8109ab36195e",
    "resource": {
      "resourceType": "Condition",
      "id": "77b35802-e9ee-4925-a5a4-8109ab36195e",
      "clinicalStatus": "active",
      "verificationStatus": "unknown",
      "subject": {
        "reference": "urn:uuid:2a4d1266-f546-4af2-aa67-43d1a0088807"
      },
      "context": {
        "reference": "urn:uuid:94b325a6-70a7-4702-86d2-94839bd1c8bd"
      },
      "evidence": [ {
        "detail": [ {
          "reference": "urn:uuid:455d4ab3-4fad-4c85-959b-58982acada15"
        } ]
      }, {
        "detail": [ {
          "reference": "urn:uuid:9bc5cb51-90ad-42ab-9ff0-5285228a5bc9"
        } ]
      }, {
        "detail": [ {
          "reference": "urn:uuid:1abed79a-0ca8-4a82-8215-2221df92d745"
        } ]
      }, {
        "detail": [ {
          "reference": "urn:uuid:b6e3a252-c98d-4b58-93a8-ca6ec7d5c62b"
        } ]
      }, {
        "detail": [ {
          "reference": "urn:uuid:3200f739-b150-4e97-b998-e15bbc83d318"
        } ]
      }, {
        "detail": [ {
          "reference": "urn:uuid:6a290627-c5cc-44a9-a577-960e84185e9f"
        } ]
      }, {
        "detail": [ {
          "reference": "urn:uuid:66207d3f-62b2-4d72-9959-bc4f0eb75b1d"
        } ]
      }, {
        "detail": [ {
          "reference": "urn:uuid:65a6e235-8695-4c83-b8da-e69449634860"
        } ]
      }, {
        "detail": [ {
          "reference": "urn:uuid:98eb211d-c6fa-411a-919e-0d6801a7865a"
        } ]
      }, {
        "detail": [ {
          "reference": "urn:uuid:2fbedccd-2ed1-41bc-9b03-a81d47dfed70"
        } ]
      }, {
        "detail": [ {
          "reference": "urn:uuid:1fa88825-27ca-4abf-888f-c6e2c84efd62"
        } ]
      }, {
        "detail": [ {
          "reference": "urn:uuid:211d4299-3328-41e1-9795-971ebc52b6a7"
        } ]
      }, {
        "detail": [ {
          "reference": "urn:uuid:c810b9af-aa9b-498c-97b4-80a845c31d0e"
        } ]
      }, {
        "detail": [ {
          "reference": "urn:uuid:75d8f3c1-4e68-44d0-a0d9-165621baeb20"
        } ]
      }, {
        "detail": [ {
          "reference": "urn:uuid:6849eda4-ad52-4aab-bb1c-2eb354e4b4ea"
        } ]
      } ]
    }
  }, {
    "fullUrl": "urn:uuid:455d4ab3-4fad-4c85-959b-58982acada15",
    "resource": {
      "resourceType": "QuestionnaireResponse",
      "id": "455d4ab3-4fad-4c85-959b-58982acada15",
      "identifier": {
        "value": "60319"
      },
      "questionnaire": {
        "reference": "urn:uuid:6655a1e4-3c58-473a-bbc7-a6ec845d320e"
      },
      "status": "completed",
      "subject": {
        "reference": "urn:uuid:2a4d1266-f546-4af2-aa67-43d1a0088807"
      },
      "context": {
        "reference": "urn:uuid:94b325a6-70a7-4702-86d2-94839bd1c8bd"
      },
      "authored": "2021-04-06T15:19:34+00:00",
      "item": [ {
        "linkId": "Tx220109",
        "text": "What is the reason for the contact?",
        "answer": [ {
          "valueString": "more"
        } ]
      } ]
    }
  }, {
    "fullUrl": "urn:uuid:6655a1e4-3c58-473a-bbc7-a6ec845d320e",
    "resource": {
      "resourceType": "Questionnaire",
      "id": "6655a1e4-3c58-473a-bbc7-a6ec845d320e",
      "identifier": [ {
        "value": "60319"
      } ],
      "version": "2021-04-06T15:19:34.083Z",
      "status": "active",
      "experimental": false,
      "date": "2021-04-06T15:19:34+00:00",
      "publisher": "User ID: 'HADFIELDR' User name: 'Ryan Hadfield' User skill set: 'T3'",
      "lastReviewDate": "2021-04-06",
      "contact": [ {
        "telecom": [ {
          "system": "phone",
          "value": "0111 111 1111"
        } ]
      } ],
      "subjectType": [ "Patient" ],
      "item": [ {
        "linkId": "60319",
        "prefix": "5",
        "text": "What is the reason for the contact?",
        "type": "choice",
        "required": true,
        "repeats": false,
        "option": [ {
          "valueString": "an injury or other health problem, Selected: false"
        }, {
          "valueString": "a need to access another healthcare service, Selected: false"
        }, {
          "valueString": "a healthcare professional requesting contact with another clinician, Selected: false"
        }, {
          "valueString": "a report of results or tests, Selected: false"
        }, {
          "valueString": "more, Selected: true"
        } ]
      } ]
    }
  }, {
    "fullUrl": "urn:uuid:9bc5cb51-90ad-42ab-9ff0-5285228a5bc9",
    "resource": {
      "resourceType": "QuestionnaireResponse",
      "id": "9bc5cb51-90ad-42ab-9ff0-5285228a5bc9",
      "identifier": {
        "value": "60319"
      },
      "questionnaire": {
        "reference": "urn:uuid:2066e32f-4665-4f41-93b2-c2c074eb9b15"
      },
      "status": "completed",
      "subject": {
        "reference": "urn:uuid:2a4d1266-f546-4af2-aa67-43d1a0088807"
      },
      "context": {
        "reference": "urn:uuid:94b325a6-70a7-4702-86d2-94839bd1c8bd"
      },
      "authored": "2021-04-06T15:19:34+00:00",
      "item": [ {
        "linkId": "Tx221793",
        "text": "STRING:to'Social&information'-further'Callreason'menu",
        "answer": [ {
          "valueString": "\"present\""
        } ]
      } ]
    }
  }, {
    "fullUrl": "urn:uuid:2066e32f-4665-4f41-93b2-c2c074eb9b15",
    "resource": {
      "resourceType": "Questionnaire",
      "id": "2066e32f-4665-4f41-93b2-c2c074eb9b15",
      "identifier": [ {
        "value": "60319"
      } ],
      "version": "2021-04-06T15:19:34.083Z",
      "status": "active",
      "experimental": false,
      "date": "2021-04-06T15:19:34+00:00",
      "publisher": "User ID: 'HADFIELDR' User name: 'Ryan Hadfield' User skill set: 'T3'",
      "lastReviewDate": "2021-04-06",
      "contact": [ {
        "telecom": [ {
          "system": "phone",
          "value": "0111 111 1111"
        } ]
      } ],
      "subjectType": [ "Patient" ],
      "item": [ {
        "linkId": "60319",
        "prefix": "600",
        "text": "STRING:to'Social&information'-further'Callreason'menu",
        "type": "choice",
        "required": true,
        "repeats": false,
        "option": [ {
          "valueString": "\"present\", Selected: true"
        } ]
      } ]
    }
  }, {
    "fullUrl": "urn:uuid:1abed79a-0ca8-4a82-8215-2221df92d745",
    "resource": {
      "resourceType": "QuestionnaireResponse",
      "id": "1abed79a-0ca8-4a82-8215-2221df92d745",
      "identifier": {
        "value": "60319"
      },
      "questionnaire": {
        "reference": "urn:uuid:cfe63c32-98d7-45ca-8b54-316b690fba02"
      },
      "status": "completed",
      "subject": {
        "reference": "urn:uuid:2a4d1266-f546-4af2-aa67-43d1a0088807"
      },
      "context": {
        "reference": "urn:uuid:94b325a6-70a7-4702-86d2-94839bd1c8bd"
      },
      "authored": "2021-04-06T15:19:34+00:00"
    }
  }, {
    "fullUrl": "urn:uuid:cfe63c32-98d7-45ca-8b54-316b690fba02",
    "resource": {
      "resourceType": "Questionnaire",
      "id": "cfe63c32-98d7-45ca-8b54-316b690fba02",
      "identifier": [ {
        "value": "60319"
      } ],
      "version": "2021-04-06T15:19:34.083Z",
      "status": "active",
      "experimental": false,
      "date": "2021-04-06T15:19:34+00:00",
      "publisher": "User ID: 'HADFIELDR' User name: 'Ryan Hadfield' User skill set: 'T3'",
      "lastReviewDate": "2021-04-06",
      "contact": [ {
        "telecom": [ {
          "system": "phone",
          "value": "0111 111 1111"
        } ]
      } ],
      "subjectType": [ "Patient" ]
    }
  }, {
    "fullUrl": "urn:uuid:b6e3a252-c98d-4b58-93a8-ca6ec7d5c62b",
    "resource": {
      "resourceType": "QuestionnaireResponse",
      "id": "b6e3a252-c98d-4b58-93a8-ca6ec7d5c62b",
      "identifier": {
        "value": "60319"
      },
      "questionnaire": {
        "reference": "urn:uuid:8458c65e-7fd4-4149-bb93-21d0db2a3110"
      },
      "status": "completed",
      "subject": {
        "reference": "urn:uuid:2a4d1266-f546-4af2-aa67-43d1a0088807"
      },
      "context": {
        "reference": "urn:uuid:94b325a6-70a7-4702-86d2-94839bd1c8bd"
      },
      "authored": "2021-04-06T15:19:34+00:00",
      "item": [ {
        "linkId": "Tx221804",
        "text": "STRING:transfertofurthermenuquestionestablishedinEntryFlow",
        "answer": [ {
          "valueString": "\"present\""
        } ]
      } ]
    }
  }, {
    "fullUrl": "urn:uuid:8458c65e-7fd4-4149-bb93-21d0db2a3110",
    "resource": {
      "resourceType": "Questionnaire",
      "id": "8458c65e-7fd4-4149-bb93-21d0db2a3110",
      "identifier": [ {
        "value": "60319"
      } ],
      "version": "2021-04-06T15:19:34.083Z",
      "status": "active",
      "experimental": false,
      "date": "2021-04-06T15:19:34+00:00",
      "publisher": "User ID: 'HADFIELDR' User name: 'Ryan Hadfield' User skill set: 'T3'",
      "lastReviewDate": "2021-04-06",
      "contact": [ {
        "telecom": [ {
          "system": "phone",
          "value": "0111 111 1111"
        } ]
      } ],
      "subjectType": [ "Patient" ],
      "item": [ {
        "linkId": "60319",
        "prefix": "41",
        "text": "STRING:transfertofurthermenuquestionestablishedinEntryFlow",
        "type": "choice",
        "required": true,
        "repeats": false,
        "option": [ {
          "valueString": "\"present\", Selected: true"
        } ]
      } ]
    }
  }, {
    "fullUrl": "urn:uuid:3200f739-b150-4e97-b998-e15bbc83d318",
    "resource": {
      "resourceType": "QuestionnaireResponse",
      "id": "3200f739-b150-4e97-b998-e15bbc83d318",
      "identifier": {
        "value": "60319"
      },
      "questionnaire": {
        "reference": "urn:uuid:affdc04b-0959-437c-9f7c-e80693f93506"
      },
      "status": "completed",
      "subject": {
        "reference": "urn:uuid:2a4d1266-f546-4af2-aa67-43d1a0088807"
      },
      "context": {
        "reference": "urn:uuid:94b325a6-70a7-4702-86d2-94839bd1c8bd"
      },
      "authored": "2021-04-06T15:19:34+00:00",
      "item": [ {
        "linkId": "Tx224998",
        "text": "SYSTEM_COVIDLEVEL2",
        "answer": [ {
          "valueString": "==\"covidlevel2\""
        } ]
      } ]
    }
  }, {
    "fullUrl": "urn:uuid:affdc04b-0959-437c-9f7c-e80693f93506",
    "resource": {
      "resourceType": "Questionnaire",
      "id": "affdc04b-0959-437c-9f7c-e80693f93506",
      "identifier": [ {
        "value": "60319"
      } ],
      "version": "2021-04-06T15:19:34.083Z",
      "status": "active",
      "experimental": false,
      "date": "2021-04-06T15:19:34+00:00",
      "publisher": "User ID: 'HADFIELDR' User name: 'Ryan Hadfield' User skill set: 'T3'",
      "lastReviewDate": "2021-04-06",
      "contact": [ {
        "telecom": [ {
          "system": "phone",
          "value": "0111 111 1111"
        } ]
      } ],
      "subjectType": [ "Patient" ],
      "item": [ {
        "linkId": "60319",
        "prefix": "5900",
        "text": "SYSTEM_COVIDLEVEL2",
        "type": "choice",
        "required": true,
        "repeats": false,
        "option": [ {
          "valueString": "==\"covidlevel2\", Selected: true"
        }, {
          "valueString": "*, Selected: false"
        } ]
      } ]
    }
  }, {
    "fullUrl": "urn:uuid:6a290627-c5cc-44a9-a577-960e84185e9f",
    "resource": {
      "resourceType": "QuestionnaireResponse",
      "id": "6a290627-c5cc-44a9-a577-960e84185e9f",
      "identifier": {
        "value": "60319"
      },
      "questionnaire": {
        "reference": "urn:uuid:79d8d021-9f37-4c45-8332-131ec264f858"
      },
      "status": "completed",
      "subject": {
        "reference": "urn:uuid:2a4d1266-f546-4af2-aa67-43d1a0088807"
      },
      "context": {
        "reference": "urn:uuid:94b325a6-70a7-4702-86d2-94839bd1c8bd"
      },
      "authored": "2021-04-06T15:19:34+00:00",
      "item": [ {
        "linkId": "Tx225069",
        "text": "What is the reason for the contact?",
        "answer": [ {
          "valueString": "a prescription request"
        } ]
      } ]
    }
  }, {
    "fullUrl": "urn:uuid:79d8d021-9f37-4c45-8332-131ec264f858",
    "resource": {
      "resourceType": "Questionnaire",
      "id": "79d8d021-9f37-4c45-8332-131ec264f858",
      "identifier": [ {
        "value": "60319"
      } ],
      "version": "2021-04-06T15:19:34.083Z",
      "status": "active",
      "experimental": false,
      "date": "2021-04-06T15:19:34+00:00",
      "publisher": "User ID: 'HADFIELDR' User name: 'Ryan Hadfield' User skill set: 'T3'",
      "lastReviewDate": "2021-04-06",
      "contact": [ {
        "telecom": [ {
          "system": "phone",
          "value": "0111 111 1111"
        } ]
      } ],
      "subjectType": [ "Patient" ],
      "item": [ {
        "linkId": "60319",
        "prefix": "6000",
        "text": "What is the reason for the contact?",
        "type": "choice",
        "required": true,
        "repeats": false,
        "option": [ {
          "valueString": "a child protection/vulnerable adult concern (specify), Selected: false"
        }, {
          "valueString": "a social or domestic emergency, Selected: false"
        }, {
          "valueString": "a prescription request, Selected: true"
        }, {
          "valueString": "an appointment request, Selected: false"
        }, {
          "valueString": "a request for health or medication information, Selected: false"
        }, {
          "valueString": "public health alert information, Selected: false"
        } ]
      } ]
    }
  }, {
    "fullUrl": "urn:uuid:66207d3f-62b2-4d72-9959-bc4f0eb75b1d",
    "resource": {
      "resourceType": "QuestionnaireResponse",
      "id": "66207d3f-62b2-4d72-9959-bc4f0eb75b1d",
      "identifier": {
        "value": "60319"
      },
      "questionnaire": {
        "reference": "urn:uuid:4ff42327-059d-4ffa-acd0-95466ac44004"
      },
      "status": "completed",
      "subject": {
        "reference": "urn:uuid:2a4d1266-f546-4af2-aa67-43d1a0088807"
      },
      "context": {
        "reference": "urn:uuid:94b325a6-70a7-4702-86d2-94839bd1c8bd"
      },
      "authored": "2021-04-06T15:19:34+00:00",
      "item": [ {
        "linkId": "Tx220957",
        "text": "Is this contact about a new or worsening illness?",
        "answer": [ {
          "valueString": "no"
        } ]
      } ]
    }
  }, {
    "fullUrl": "urn:uuid:4ff42327-059d-4ffa-acd0-95466ac44004",
    "resource": {
      "resourceType": "Questionnaire",
      "id": "4ff42327-059d-4ffa-acd0-95466ac44004",
      "identifier": [ {
        "value": "60319"
      } ],
      "version": "2021-04-06T15:19:34.083Z",
      "status": "active",
      "experimental": false,
      "date": "2021-04-06T15:19:34+00:00",
      "publisher": "User ID: 'HADFIELDR' User name: 'Ryan Hadfield' User skill set: 'T3'",
      "lastReviewDate": "2021-04-06",
      "contact": [ {
        "telecom": [ {
          "system": "phone",
          "value": "0111 111 1111"
        } ]
      } ],
      "subjectType": [ "Patient" ],
      "item": [ {
        "linkId": "60319",
        "prefix": "1400",
        "text": "Is this contact about a new or worsening illness?",
        "type": "choice",
        "required": true,
        "repeats": false,
        "option": [ {
          "valueString": "yes, Selected: false"
        }, {
          "valueString": "not sure, Selected: false"
        }, {
          "valueString": "no, Selected: true"
        } ]
      } ]
    }
  }, {
    "fullUrl": "urn:uuid:65a6e235-8695-4c83-b8da-e69449634860",
    "resource": {
      "resourceType": "QuestionnaireResponse",
      "id": "65a6e235-8695-4c83-b8da-e69449634860",
      "identifier": {
        "value": "60319"
      },
      "questionnaire": {
        "reference": "urn:uuid:66d0741e-d4e3-42f6-8786-ed7e61d936ce"
      },
      "status": "completed",
      "subject": {
        "reference": "urn:uuid:2a4d1266-f546-4af2-aa67-43d1a0088807"
      },
      "context": {
        "reference": "urn:uuid:94b325a6-70a7-4702-86d2-94839bd1c8bd"
      },
      "authored": "2021-04-06T15:19:34+00:00",
      "item": [ {
        "linkId": "Tx221352",
        "text": "Have you got enough medication to last until the surgery opens?",
        "answer": [ {
          "valueString": "no"
        } ]
      } ]
    }
  }, {
    "fullUrl": "urn:uuid:66d0741e-d4e3-42f6-8786-ed7e61d936ce",
    "resource": {
      "resourceType": "Questionnaire",
      "id": "66d0741e-d4e3-42f6-8786-ed7e61d936ce",
      "identifier": [ {
        "value": "60319"
      } ],
      "version": "2021-04-06T15:19:34.083Z",
      "status": "active",
      "experimental": false,
      "date": "2021-04-06T15:19:34+00:00",
      "publisher": "User ID: 'HADFIELDR' User name: 'Ryan Hadfield' User skill set: 'T3'",
      "lastReviewDate": "2021-04-06",
      "contact": [ {
        "telecom": [ {
          "system": "phone",
          "value": "0111 111 1111"
        } ]
      } ],
      "subjectType": [ "Patient" ],
      "item": [ {
        "linkId": "60319",
        "prefix": "1500",
        "text": "Have you got enough medication to last until the surgery opens?",
        "type": "choice",
        "required": true,
        "repeats": false,
        "option": [ {
          "valueString": "yes, Selected: false"
        }, {
          "valueString": "not sure, Selected: false"
        }, {
          "valueString": "no, Selected: true"
        } ]
      } ]
    }
  }, {
    "fullUrl": "urn:uuid:98eb211d-c6fa-411a-919e-0d6801a7865a",
    "resource": {
      "resourceType": "QuestionnaireResponse",
      "id": "98eb211d-c6fa-411a-919e-0d6801a7865a",
      "identifier": {
        "value": "60319"
      },
      "questionnaire": {
        "reference": "urn:uuid:8f1a6fc7-6fe8-4d82-a595-5f8004252495"
      },
      "status": "completed",
      "subject": {
        "reference": "urn:uuid:2a4d1266-f546-4af2-aa67-43d1a0088807"
      },
      "context": {
        "reference": "urn:uuid:94b325a6-70a7-4702-86d2-94839bd1c8bd"
      },
      "authored": "2021-04-06T15:19:34+00:00"
    }
  }, {
    "fullUrl": "urn:uuid:8f1a6fc7-6fe8-4d82-a595-5f8004252495",
    "resource": {
      "resourceType": "Questionnaire",
      "id": "8f1a6fc7-6fe8-4d82-a595-5f8004252495",
      "identifier": [ {
        "value": "60319"
      } ],
      "version": "2021-04-06T15:19:34.083Z",
      "status": "active",
      "experimental": false,
      "date": "2021-04-06T15:19:34+00:00",
      "publisher": "User ID: 'HADFIELDR' User name: 'Ryan Hadfield' User skill set: 'T3'",
      "lastReviewDate": "2021-04-06",
      "contact": [ {
        "telecom": [ {
          "system": "phone",
          "value": "0111 111 1111"
        } ]
      } ],
      "subjectType": [ "Patient" ]
    }
  }, {
    "fullUrl": "urn:uuid:2fbedccd-2ed1-41bc-9b03-a81d47dfed70",
    "resource": {
      "resourceType": "QuestionnaireResponse",
      "id": "2fbedccd-2ed1-41bc-9b03-a81d47dfed70",
      "identifier": {
        "value": "60319"
      },
      "questionnaire": {
        "reference": "urn:uuid:a8bd8edb-581a-4f6e-bb98-d0fefc10f962"
      },
      "status": "completed",
      "subject": {
        "reference": "urn:uuid:2a4d1266-f546-4af2-aa67-43d1a0088807"
      },
      "context": {
        "reference": "urn:uuid:94b325a6-70a7-4702-86d2-94839bd1c8bd"
      },
      "authored": "2021-04-06T15:19:34+00:00",
      "item": [ {
        "linkId": "Tx224231",
        "text": "FROM WHAT YOU HAVE HEARD IS A CONSULTATION WITH A PRESCRIBER NEEDED?",
        "answer": [ {
          "valueString": "no"
        } ]
      } ]
    }
  }, {
    "fullUrl": "urn:uuid:a8bd8edb-581a-4f6e-bb98-d0fefc10f962",
    "resource": {
      "resourceType": "Questionnaire",
      "id": "a8bd8edb-581a-4f6e-bb98-d0fefc10f962",
      "identifier": [ {
        "value": "60319"
      } ],
      "version": "2021-04-06T15:19:34.083Z",
      "status": "active",
      "experimental": false,
      "date": "2021-04-06T15:19:34+00:00",
      "publisher": "User ID: 'HADFIELDR' User name: 'Ryan Hadfield' User skill set: 'T3'",
      "lastReviewDate": "2021-04-06",
      "contact": [ {
        "telecom": [ {
          "system": "phone",
          "value": "0111 111 1111"
        } ]
      } ],
      "subjectType": [ "Patient" ],
      "item": [ {
        "linkId": "60319",
        "prefix": "0",
        "text": "FROM WHAT YOU HAVE HEARD IS A CONSULTATION WITH A PRESCRIBER NEEDED?",
        "type": "choice",
        "required": true,
        "repeats": false,
        "option": [ {
          "valueString": "yes, Selected: false"
        }, {
          "valueString": "not sure, Selected: false"
        }, {
          "valueString": "no, Selected: true"
        } ]
      } ]
    }
  }, {
    "fullUrl": "urn:uuid:1fa88825-27ca-4abf-888f-c6e2c84efd62",
    "resource": {
      "resourceType": "QuestionnaireResponse",
      "id": "1fa88825-27ca-4abf-888f-c6e2c84efd62",
      "identifier": {
        "value": "60319"
      },
      "questionnaire": {
        "reference": "urn:uuid:e55e3988-c2f6-438a-b7b8-acddec59b012"
      },
      "status": "completed",
      "subject": {
        "reference": "urn:uuid:2a4d1266-f546-4af2-aa67-43d1a0088807"
      },
      "context": {
        "reference": "urn:uuid:94b325a6-70a7-4702-86d2-94839bd1c8bd"
      },
      "authored": "2021-04-06T15:19:34+00:00",
      "item": [ {
        "linkId": "Tx222687",
        "text": "Have you got any of the medication available at the moment?",
        "answer": [ {
          "valueString": "no"
        } ]
      } ]
    }
  }, {
    "fullUrl": "urn:uuid:e55e3988-c2f6-438a-b7b8-acddec59b012",
    "resource": {
      "resourceType": "Questionnaire",
      "id": "e55e3988-c2f6-438a-b7b8-acddec59b012",
      "identifier": [ {
        "value": "60319"
      } ],
      "version": "2021-04-06T15:19:34.083Z",
      "status": "active",
      "experimental": false,
      "date": "2021-04-06T15:19:34+00:00",
      "publisher": "User ID: 'HADFIELDR' User name: 'Ryan Hadfield' User skill set: 'T3'",
      "lastReviewDate": "2021-04-06",
      "contact": [ {
        "telecom": [ {
          "system": "phone",
          "value": "0111 111 1111"
        } ]
      } ],
      "subjectType": [ "Patient" ],
      "item": [ {
        "linkId": "60319",
        "prefix": "200",
        "text": "Have you got any of the medication available at the moment?",
        "type": "choice",
        "required": true,
        "repeats": false,
        "option": [ {
          "valueString": "yes, Selected: false"
        }, {
          "valueString": "not sure, Selected: false"
        }, {
          "valueString": "no, Selected: true"
        } ]
      } ]
    }
  }, {
    "fullUrl": "urn:uuid:211d4299-3328-41e1-9795-971ebc52b6a7",
    "resource": {
      "resourceType": "QuestionnaireResponse",
      "id": "211d4299-3328-41e1-9795-971ebc52b6a7",
      "identifier": {
        "value": "60319"
      },
      "questionnaire": {
        "reference": "urn:uuid:655fef31-4e40-4836-8dfd-a4cc719fece0"
      },
      "status": "completed",
      "subject": {
        "reference": "urn:uuid:2a4d1266-f546-4af2-aa67-43d1a0088807"
      },
      "context": {
        "reference": "urn:uuid:94b325a6-70a7-4702-86d2-94839bd1c8bd"
      },
      "authored": "2021-04-06T15:19:34+00:00",
      "item": [ {
        "linkId": "Tx221367",
        "text": "When is the next dose due?",
        "answer": [ {
          "valueString": "over 12 hours time"
        } ]
      } ]
    }
  }, {
    "fullUrl": "urn:uuid:655fef31-4e40-4836-8dfd-a4cc719fece0",
    "resource": {
      "resourceType": "Questionnaire",
      "id": "655fef31-4e40-4836-8dfd-a4cc719fece0",
      "identifier": [ {
        "value": "60319"
      } ],
      "version": "2021-04-06T15:19:34.083Z",
      "status": "active",
      "experimental": false,
      "date": "2021-04-06T15:19:34+00:00",
      "publisher": "User ID: 'HADFIELDR' User name: 'Ryan Hadfield' User skill set: 'T3'",
      "lastReviewDate": "2021-04-06",
      "contact": [ {
        "telecom": [ {
          "system": "phone",
          "value": "0111 111 1111"
        } ]
      } ],
      "subjectType": [ "Patient" ],
      "item": [ {
        "linkId": "60319",
        "prefix": "100",
        "text": "When is the next dose due?",
        "type": "choice",
        "required": true,
        "repeats": false,
        "option": [ {
          "valueString": "within the next 2 hours, Selected: false"
        }, {
          "valueString": "within the next 6 hours, Selected: false"
        }, {
          "valueString": "within the next 12 hours, Selected: false"
        }, {
          "valueString": "over 12 hours time, Selected: true"
        }, {
          "valueString": "not sure, Selected: false"
        } ]
      } ]
    }
  }, {
    "fullUrl": "urn:uuid:c810b9af-aa9b-498c-97b4-80a845c31d0e",
    "resource": {
      "resourceType": "QuestionnaireResponse",
      "id": "c810b9af-aa9b-498c-97b4-80a845c31d0e",
      "identifier": {
        "value": "60319"
      },
      "questionnaire": {
        "reference": "urn:uuid:5890ce97-79bb-4f4d-a1fb-48addadda774"
      },
      "status": "completed",
      "subject": {
        "reference": "urn:uuid:2a4d1266-f546-4af2-aa67-43d1a0088807"
      },
      "context": {
        "reference": "urn:uuid:94b325a6-70a7-4702-86d2-94839bd1c8bd"
      },
      "authored": "2021-04-06T15:19:34+00:00",
      "item": [ {
        "linkId": "Tx223441",
        "text": "STRING:SDPCRepeatPrescription",
        "answer": [ {
          "valueString": "\"PC repeat prescription\""
        } ]
      } ]
    }
  }, {
    "fullUrl": "urn:uuid:5890ce97-79bb-4f4d-a1fb-48addadda774",
    "resource": {
      "resourceType": "Questionnaire",
      "id": "5890ce97-79bb-4f4d-a1fb-48addadda774",
      "identifier": [ {
        "value": "60319"
      } ],
      "version": "2021-04-06T15:19:34.083Z",
      "status": "active",
      "experimental": false,
      "date": "2021-04-06T15:19:34+00:00",
      "publisher": "User ID: 'HADFIELDR' User name: 'Ryan Hadfield' User skill set: 'T3'",
      "lastReviewDate": "2021-04-06",
      "contact": [ {
        "telecom": [ {
          "system": "phone",
          "value": "0111 111 1111"
        } ]
      } ],
      "subjectType": [ "Patient" ],
      "item": [ {
        "linkId": "60319",
        "prefix": "1100",
        "text": "STRING:SDPCRepeatPrescription",
        "type": "choice",
        "required": true,
        "repeats": false,
        "option": [ {
          "valueString": "\"PC repeat prescription\", Selected: true"
        } ]
      } ]
    }
  }, {
    "fullUrl": "urn:uuid:75d8f3c1-4e68-44d0-a0d9-165621baeb20",
    "resource": {
      "resourceType": "QuestionnaireResponse",
      "id": "75d8f3c1-4e68-44d0-a0d9-165621baeb20",
      "identifier": {
        "value": "60319"
      },
      "questionnaire": {
        "reference": "urn:uuid:9f4cbefa-e3f6-4cb7-8edc-0a1fb341e342"
      },
      "status": "completed",
      "subject": {
        "reference": "urn:uuid:2a4d1266-f546-4af2-aa67-43d1a0088807"
      },
      "context": {
        "reference": "urn:uuid:94b325a6-70a7-4702-86d2-94839bd1c8bd"
      },
      "authored": "2021-04-06T15:19:34+00:00"
    }
  }, {
    "fullUrl": "urn:uuid:9f4cbefa-e3f6-4cb7-8edc-0a1fb341e342",
    "resource": {
      "resourceType": "Questionnaire",
      "id": "9f4cbefa-e3f6-4cb7-8edc-0a1fb341e342",
      "identifier": [ {
        "value": "60319"
      } ],
      "version": "2021-04-06T15:19:34.083Z",
      "status": "active",
      "experimental": false,
      "date": "2021-04-06T15:19:34+00:00",
      "publisher": "User ID: 'HADFIELDR' User name: 'Ryan Hadfield' User skill set: 'T3'",
      "lastReviewDate": "2021-04-06",
      "contact": [ {
        "telecom": [ {
          "system": "phone",
          "value": "0111 111 1111"
        } ]
      } ],
      "subjectType": [ "Patient" ]
    }
  }, {
    "fullUrl": "urn:uuid:6849eda4-ad52-4aab-bb1c-2eb354e4b4ea",
    "resource": {
      "resourceType": "QuestionnaireResponse",
      "id": "6849eda4-ad52-4aab-bb1c-2eb354e4b4ea",
      "identifier": {
        "value": "60319"
      },
      "questionnaire": {
        "reference": "urn:uuid:d8a6fe83-a207-47f3-8ec0-6f17ddaf9de5"
      },
      "status": "completed",
      "subject": {
        "reference": "urn:uuid:2a4d1266-f546-4af2-aa67-43d1a0088807"
      },
      "context": {
        "reference": "urn:uuid:94b325a6-70a7-4702-86d2-94839bd1c8bd"
      },
      "authored": "2021-04-06T15:19:34+00:00"
    }
  }, {
    "fullUrl": "urn:uuid:d8a6fe83-a207-47f3-8ec0-6f17ddaf9de5",
    "resource": {
      "resourceType": "Questionnaire",
      "id": "d8a6fe83-a207-47f3-8ec0-6f17ddaf9de5",
      "identifier": [ {
        "value": "60319"
      } ],
      "version": "2021-04-06T15:19:34.083Z",
      "status": "active",
      "experimental": false,
      "date": "2021-04-06T15:19:34+00:00",
      "publisher": "User ID: 'HADFIELDR' User name: 'Ryan Hadfield' User skill set: 'T3'",
      "lastReviewDate": "2021-04-06",
      "contact": [ {
        "telecom": [ {
          "system": "phone",
          "value": "0111 111 1111"
        } ]
      } ],
      "subjectType": [ "Patient" ]
    }
  }, {
    "fullUrl": "urn:uuid:ac9e52ee-a9e0-4d9e-ad79-c64b1bd85bf7",
    "resource": {
      "resourceType": "PractitionerRole",
      "id": "ac9e52ee-a9e0-4d9e-ad79-c64b1bd85bf7",
      "practitioner": {
        "reference": "urn:uuid:7ec72590-009b-462f-850c-4c8359804c27"
      },
      "organization": {
        "reference": "urn:uuid:62b9c3a5-ded2-4d3c-8582-688ac3130fe6"
      },
      "code": [ {
        "coding": [ {
          "system": "2.16.840.1.113883.2.1.3.2.4.17.339",
          "code": "DOCTOR",
          "display": "Doctor"
        } ]
      } ]
    }
  }, {
    "fullUrl": "urn:uuid:62b9c3a5-ded2-4d3c-8582-688ac3130fe6",
    "resource": {
      "resourceType": "Organization",
      "id": "62b9c3a5-ded2-4d3c-8582-688ac3130fe6",
      "identifier": [ {
        "value": "RYE"
      } ],
      "name": "RepresentedOrg Name"
    }
  }, {
    "fullUrl": "urn:uuid:994f5fce-2086-4b4b-9a95-15339e97749b",
    "resource": {
      "resourceType": "PractitionerRole",
      "id": "994f5fce-2086-4b4b-9a95-15339e97749b",
      "practitioner": {
        "reference": "urn:uuid:5a14c67c-8549-43da-b608-3e33a6b9ad63"
      },
      "organization": {
        "reference": "urn:uuid:88bfee5a-98e1-41e3-99e0-f8c9a62ebfe9"
      },
      "code": [ {
        "coding": [ {
          "system": "2.16.840.1.113883.2.1.3.2.4.17.196",
          "code": "R0010",
          "display": "Medical Director"
        } ]
      } ]
    }
  }, {
    "fullUrl": "urn:uuid:88bfee5a-98e1-41e3-99e0-f8c9a62ebfe9",
    "resource": {
      "resourceType": "Organization",
      "id": "88bfee5a-98e1-41e3-99e0-f8c9a62ebfe9",
      "identifier": [ {
        "value": "RYE"
      } ],
      "name": "RepresentedOrgNameRYE"
    }
  }, {
    "fullUrl": "urn:uuid:9343736d-c269-4f71-bac0-e95ab727542d",
    "resource": {
      "resourceType": "RelatedPerson",
      "id": "9343736d-c269-4f71-bac0-e95ab727542d",
      "patient": {
        "reference": "urn:uuid:2a4d1266-f546-4af2-aa67-43d1a0088807"
      },
      "relationship": {
        "coding": [ {
          "system": "http://hl7.org/fhir/v2/0131",
          "code": "C",
          "display": "Emergency Contact"
        } ]
      },
      "telecom": [ {
        "system": "phone",
        "value": "tel:000000000000"
      } ]
    }
  }, {
    "fullUrl": "urn:uuid:2f9df190-9db9-4219-99ee-1d12c398cf5c",
    "resource": {
      "resourceType": "Device",
      "id": "2f9df190-9db9-4219-99ee-1d12c398cf5c",
      "model": "111 Adaptor",
      "version": "1.0.0"
    }
  }, {
    "fullUrl": "urn:uuid:d89178a8-6250-4e86-a887-353c1d5617fd",
    "resource": {
      "resourceType": "List",
      "id": "d89178a8-6250-4e86-a887-353c1d5617fd",
      "status": "current",
      "mode": "working",
      "title": "111 Report List",
      "code": {
        "coding": [ {
          "system": "http://snomed.info/sct",
          "code": "225390008",
          "display": "Triage"
        } ]
      },
      "subject": {
        "reference": "urn:uuid:2a4d1266-f546-4af2-aa67-43d1a0088807"
      },
      "encounter": {
        "reference": "urn:uuid:94b325a6-70a7-4702-86d2-94839bd1c8bd"
      },
      "date": "2021-10-11T06:41:48+00:00",
      "source": {
        "reference": "urn:uuid:2f9df190-9db9-4219-99ee-1d12c398cf5c"
      },
      "orderedBy": {
        "coding": [ {
          "system": "http://hl7.org/fhir/list-order",
          "code": "event-date",
          "display": "Sorted by Event Date"
        } ]
      },
      "entry": [ {
        "item": {
          "reference": "urn:uuid:7ec72590-009b-462f-850c-4c8359804c27"
        }
      }, {
        "item": {
          "reference": "urn:uuid:62b9c3a5-ded2-4d3c-8582-688ac3130fe6"
        }
      }, {
        "item": {
          "reference": "urn:uuid:5a14c67c-8549-43da-b608-3e33a6b9ad63"
        }
      }, {
        "item": {
          "reference": "urn:uuid:65d44bff-6e41-442e-b599-aa954a216285"
        }
      }, {
        "item": {
          "reference": "urn:uuid:9343736d-c269-4f71-bac0-e95ab727542d"
        }
      }, {
        "item": {
          "reference": "urn:uuid:8eb8889a-4582-4ad7-8b0a-fadee007e3f8"
        }
      }, {
        "item": {
          "reference": "urn:uuid:88bfee5a-98e1-41e3-99e0-f8c9a62ebfe9"
        }
      }, {
        "item": {
          "reference": "urn:uuid:77b35802-e9ee-4925-a5a4-8109ab36195e"
        }
      }, {
        "item": {
          "reference": "urn:uuid:83a4f6b3-7d6f-48b0-b8b5-40627ad1b3fb"
        }
      }, {
        "item": {
          "reference": "urn:uuid:6655a1e4-3c58-473a-bbc7-a6ec845d320e"
        }
      }, {
        "item": {
          "reference": "urn:uuid:d8a6fe83-a207-47f3-8ec0-6f17ddaf9de5"
        }
      }, {
        "item": {
          "reference": "urn:uuid:655fef31-4e40-4836-8dfd-a4cc719fece0"
        }
      }, {
        "item": {
          "reference": "urn:uuid:2fbedccd-2ed1-41bc-9b03-a81d47dfed70"
        }
      }, {
        "item": {
          "reference": "urn:uuid:75d8f3c1-4e68-44d0-a0d9-165621baeb20"
        }
      }, {
        "item": {
          "reference": "urn:uuid:3200f739-b150-4e97-b998-e15bbc83d318"
        }
      }, {
        "item": {
          "reference": "urn:uuid:b6e3a252-c98d-4b58-93a8-ca6ec7d5c62b"
        }
      }, {
        "item": {
          "reference": "urn:uuid:6a290627-c5cc-44a9-a577-960e84185e9f"
        }
      }, {
        "item": {
          "reference": "urn:uuid:98eb211d-c6fa-411a-919e-0d6801a7865a"
        }
      }, {
        "item": {
          "reference": "urn:uuid:4ff42327-059d-4ffa-acd0-95466ac44004"
        }
      }, {
        "item": {
          "reference": "urn:uuid:65a6e235-8695-4c83-b8da-e69449634860"
        }
      }, {
        "item": {
          "reference": "urn:uuid:9bc5cb51-90ad-42ab-9ff0-5285228a5bc9"
        }
      }, {
        "item": {
          "reference": "urn:uuid:cfe63c32-98d7-45ca-8b54-316b690fba02"
        }
      }, {
        "item": {
          "reference": "urn:uuid:5890ce97-79bb-4f4d-a1fb-48addadda774"
        }
      }, {
        "item": {
          "reference": "urn:uuid:2066e32f-4665-4f41-93b2-c2c074eb9b15"
        }
      }, {
        "item": {
          "reference": "urn:uuid:e55e3988-c2f6-438a-b7b8-acddec59b012"
        }
      }, {
        "item": {
          "reference": "urn:uuid:79d8d021-9f37-4c45-8332-131ec264f858"
        }
      }, {
        "item": {
          "reference": "urn:uuid:8458c65e-7fd4-4149-bb93-21d0db2a3110"
        }
      }, {
        "item": {
          "reference": "urn:uuid:8f1a6fc7-6fe8-4d82-a595-5f8004252495"
        }
      }, {
        "item": {
          "reference": "urn:uuid:6849eda4-ad52-4aab-bb1c-2eb354e4b4ea"
        }
      }, {
        "item": {
          "reference": "urn:uuid:a8bd8edb-581a-4f6e-bb98-d0fefc10f962"
        }
      }, {
        "item": {
          "reference": "urn:uuid:211d4299-3328-41e1-9795-971ebc52b6a7"
        }
      }, {
        "item": {
          "reference": "urn:uuid:affdc04b-0959-437c-9f7c-e80693f93506"
        }
      }, {
        "item": {
          "reference": "urn:uuid:9f4cbefa-e3f6-4cb7-8edc-0a1fb341e342"
        }
      }, {
        "item": {
          "reference": "urn:uuid:66207d3f-62b2-4d72-9959-bc4f0eb75b1d"
        }
      }, {
        "item": {
          "reference": "urn:uuid:455d4ab3-4fad-4c85-959b-58982acada15"
        }
      }, {
        "item": {
          "reference": "urn:uuid:1fa88825-27ca-4abf-888f-c6e2c84efd62"
        }
      }, {
        "item": {
          "reference": "urn:uuid:66d0741e-d4e3-42f6-8786-ed7e61d936ce"
        }
      }, {
        "item": {
          "reference": "urn:uuid:c810b9af-aa9b-498c-97b4-80a845c31d0e"
        }
      }, {
        "item": {
          "reference": "urn:uuid:1abed79a-0ca8-4a82-8215-2221df92d745"
        }
      }, {
        "item": {
          "reference": "urn:uuid:9985d474-d4e9-4714-a90e-c9e67e352d7b"
        }
      } ]
    }
  } ]
}