{
  "resourceType": "Bundle",
  "identifier": {
    "type": {
      "text": "ClinicalDocument VersionNumber"
    },
    "value": "1"
  },
  "type": "message",
  "entry": [ {
    "fullUrl": "urn:uuid:F7916D36-4D5F-4A64-BD08-644E8A234AE2",
    "resource": {
      "resourceType": "MessageHeader",
      "id": "F7916D36-4D5F-4A64-BD08-644E8A234AE2",
      "event": {
        "system": "https://fhir.nhs.uk/STU3/CodeSystem/EventType-1",
        "code": "referral-1",
        "display": "Referral"
      },
      "destination": [ {
        "endpoint": "urn:nhs-uk:addressing:ods:NVE06:DOSServiceID:1335970392"
      } ],
      "timestamp": "2021-05-13T17:24:56.000+00:00",
      "source": {
        "name": "NHS 111 Adaptor",
        "endpoint": "http://localhost:8080/report"
      },
      "reason": {
        "coding": [ {
          "system": "urn:nhs-itk:ns:201005:interaction",
          "code": "urn:nhs-itk:interaction:primaryOutofHourRecipientNHS111CDADocument-v2-0"
        } ]
      }
    }
  }, {
    "fullUrl": "urn:uuid:77bf084e-2a81-43ce-a9a9-6f0da5e6fd43",
    "resource": {
      "resourceType": "Encounter",
      "id": "77bf084e-2a81-43ce-a9a9-6f0da5e6fd43",
      "identifier": [ {
        "system": "2.16.840.1.113883.2.1.3.2.4.18.34",
        "value": "2DBAE50F-F88C-4572-9866-F94FE0F1F25A"
      }, {
        "system": "2.16.840.1.113883.2.1.3.2.4.18.35",
        "value": "2100310450"
      } ],
      "status": "finished",
      "type": [ {
        "text": "111 Encounter Referral"
      } ],
      "subject": {
        "reference": "urn:uuid:e4f3fe75-ac3a-4b09-b7b3-2b06e1781241"
      },
      "participant": [ {
        "type": [ {
          "coding": [ {
            "system": "http://hl7.org/fhir/ValueSet/encounter-participant-type",
            "code": "PPRF",
            "display": "Author"
          } ]
        } ],
        "individual": {
          "reference": "urn:uuid:b1a3745d-b7c0-4930-a33e-2c3388089ea7"
        }
      }, {
        "type": [ {
          "text": "Informant"
        } ],
        "individual": {
          "reference": "urn:uuid:4c55ca8f-32ca-4be6-8d58-f5deae625fdd"
        }
      } ],
      "period": {
        "start": "2021-05-13T17:24:56+00:00"
      },
      "location": [ {
        "location": {
          "reference": "urn:uuid:df22fff1-5454-4f98-89db-02c3ce521686"
        },
        "status": "active"
      }, {
        "location": {
          "reference": "urn:uuid:65c56b0e-3d47-4c35-a800-bfb4a4083247"
        },
        "status": "completed"
      } ],
      "serviceProvider": {
        "reference": "urn:uuid:17972e4b-88a4-464c-84a7-65d4a0f73eda"
      }
    }
  }, {
    "fullUrl": "urn:uuid:17972e4b-88a4-464c-84a7-65d4a0f73eda",
    "resource": {
      "resourceType": "Organization",
      "id": "17972e4b-88a4-464c-84a7-65d4a0f73eda",
      "active": true,
      "type": [ {
        "text": "CST"
      } ],
      "name": "Norfolk and Wisbech 111"
    }
  }, {
    "fullUrl": "urn:uuid:b1a3745d-b7c0-4930-a33e-2c3388089ea7",
    "resource": {
      "resourceType": "Practitioner",
      "id": "b1a3745d-b7c0-4930-a33e-2c3388089ea7",
      "active": true,
      "name": [ {
        "text": "Ben Smythson"
      } ]
    }
  }, {
    "fullUrl": "urn:uuid:4c55ca8f-32ca-4be6-8d58-f5deae625fdd",
    "resource": {
      "resourceType": "RelatedPerson",
      "id": "4c55ca8f-32ca-4be6-8d58-f5deae625fdd",
      "active": true,
      "patient": {
        "reference": "urn:uuid:e4f3fe75-ac3a-4b09-b7b3-2b06e1781241"
      },
      "relationship": {
        "coding": [ {
          "system": "2.16.840.1.113883.2.1.3.2.4.16.45",
          "code": "21",
          "display": "Self"
        }, {
          "system": "http://hl7.org/fhir/v2/0131",
          "code": "C",
          "display": "Emergency Contact"
        } ]
      },
      "name": [ {
        "text": "Test Call Dx10 TEST CALL DX10"
      } ],
      "telecom": [ {
        "system": "phone",
        "value": "tel:01233123123"
      } ],
      "gender": "unknown"
    }
  }, {
    "fullUrl": "urn:uuid:df22fff1-5454-4f98-89db-02c3ce521686",
    "resource": {
      "resourceType": "Location",
      "id": "df22fff1-5454-4f98-89db-02c3ce521686",
      "managingOrganization": {
        "reference": "urn:uuid:3951f8b9-4a15-4284-9341-b14254ac77a8"
      }
    }
  }, {
    "fullUrl": "urn:uuid:3951f8b9-4a15-4284-9341-b14254ac77a8",
    "resource": {
      "resourceType": "Organization",
      "id": "3951f8b9-4a15-4284-9341-b14254ac77a8",
      "identifier": [ {
        "value": "Z10000"
      } ],
      "type": [ {
        "text": "GP Practice"
      } ],
      "name": "UNKNOWN"
    }
  }, {
    "fullUrl": "urn:uuid:65c56b0e-3d47-4c35-a800-bfb4a4083247",
    "resource": {
      "resourceType": "Location",
      "id": "65c56b0e-3d47-4c35-a800-bfb4a4083247",
      "address": {
        "type": "physical",
        "line": [ "313 VICTORIA ROAD", "LOWESTOFT" ],
        "postalCode": "NR33 9LS"
      }
    }
  }, {
    "fullUrl": "urn:uuid:e4f3fe75-ac3a-4b09-b7b3-2b06e1781241",
    "resource": {
      "resourceType": "Patient",
      "id": "e4f3fe75-ac3a-4b09-b7b3-2b06e1781241",
      "language": "en",
      "active": true,
      "name": [ {
        "use": "official",
        "family": "TEST CALL DX10",
        "given": [ "Test Call Dx10" ]
      } ],
      "telecom": [ {
        "system": "phone",
        "value": "tel:01233123123"
      } ],
      "gender": "male",
      "birthDate": "1996-03-25",
      "address": [ {
        "use": "home",
        "line": [ "313 VICTORIA ROAD", "LOWESTOFT" ],
        "postalCode": "NR33 9LS"
      }, {
        "type": "physical",
        "line": [ "313 VICTORIA ROAD", "LOWESTOFT" ],
        "postalCode": "NR33 9LS"
      } ],
      "generalPractitioner": [ {
        "reference": "urn:uuid:4c21e24a-9232-42ed-b6bb-9536e4299d13"
      } ]
    }
  }, {
    "fullUrl": "urn:uuid:4c21e24a-9232-42ed-b6bb-9536e4299d13",
    "resource": {
      "resourceType": "Organization",
      "id": "4c21e24a-9232-42ed-b6bb-9536e4299d13",
      "identifier": [ {
        "value": "Z10000"
      } ],
      "type": [ {
        "text": "GP Practice"
      } ],
      "name": "UNKNOWN"
    }
  }, {
    "fullUrl": "urn:uuid:edf8b5c5-9bf6-400c-8de4-2efa5f97517c",
    "resource": {
      "resourceType": "HealthcareService",
      "id": "edf8b5c5-9bf6-400c-8de4-2efa5f97517c",
      "active": true,
      "providedBy": {
        "reference": "urn:uuid:0efab702-f296-4cab-9118-83a11da62e29"
      },
      "location": [ {
        "reference": "urn:uuid:1b00ce32-63a5-4615-bb5c-146a80021dac"
      } ],
      "name": "Out of Hours GP Service (Waveney) - Kirkley Mill Health Centre, Lowestoft"
    }
  }, {
    "fullUrl": "urn:uuid:1b00ce32-63a5-4615-bb5c-146a80021dac",
    "resource": {
      "resourceType": "Location",
      "id": "1b00ce32-63a5-4615-bb5c-146a80021dac",
      "managingOrganization": {
        "reference": "urn:uuid:0efab702-f296-4cab-9118-83a11da62e29"
      }
    }
  }, {
    "fullUrl": "urn:uuid:0efab702-f296-4cab-9118-83a11da62e29",
    "resource": {
      "resourceType": "Organization",
      "id": "0efab702-f296-4cab-9118-83a11da62e29",
      "identifier": [ {
        "value": "NVE06"
      } ],
      "type": [ {
        "coding": [ {
          "code": "PRCP",
          "display": "Out of Hours GP Service (Waveney) - Kirkley Mill Health Centre, Lowestoft"
        } ]
      } ],
      "name": "Out of Hours GP Service (Waveney) - Kirkley Mill Health Centre, Lowestoft"
    }
  }, {
    "fullUrl": "urn:uuid:ab925fbf-2419-4dad-b609-a9b20075ee16",
    "resource": {
      "resourceType": "ReferralRequest",
      "id": "ab925fbf-2419-4dad-b609-a9b20075ee16",
      "status": "active",
      "intent": "plan",
      "priority": "routine",
      "subject": {
        "reference": "urn:uuid:e4f3fe75-ac3a-4b09-b7b3-2b06e1781241"
      },
      "context": {
        "reference": "urn:uuid:77bf084e-2a81-43ce-a9a9-6f0da5e6fd43"
      },
      "occurrencePeriod": {
        "start": "2021-10-11T06:41:49+00:00",
        "end": "2021-10-11T07:41:49+00:00"
      },
      "authoredOn": "2021-05-13T17:24:56+00:00",
      "requester": {
        "agent": {
          "reference": "urn:uuid:c4ac5594-b9e0-479b-8ba2-01c82939d6d9"
        },
        "onBehalfOf": {
          "reference": "urn:uuid:17972e4b-88a4-464c-84a7-65d4a0f73eda"
        }
      },
      "recipient": [ {
        "reference": "urn:uuid:a82e1fc6-2071-4199-bef6-60de79fa2e28"
      }, {
        "reference": "urn:uuid:edf8b5c5-9bf6-400c-8de4-2efa5f97517c"
      } ],
      "reasonReference": [ {
        "reference": "urn:uuid:b193d055-755c-484c-9258-013d0c93cad6"
      } ],
      "supportingInfo": [ {
        "reference": "urn:uuid:4b427a36-8d57-4319-ac34-331fd017249d"
      } ]
    }
  }, {
    "fullUrl": "urn:uuid:4b427a36-8d57-4319-ac34-331fd017249d",
    "resource": {
      "resourceType": "ProcedureRequest",
      "id": "4b427a36-8d57-4319-ac34-331fd017249d",
      "status": "active",
      "intent": "plan",
      "priority": "routine",
      "doNotPerform": false,
      "code": {
        "coding": [ {
          "system": "2.16.840.1.113883.2.1.3.2.4.17.325",
          "code": "Dx10",
          "display": "MUST contact a local service for a Non-Urgent Appointment"
        } ]
      },
      "subject": {
        "reference": "urn:uuid:e4f3fe75-ac3a-4b09-b7b3-2b06e1781241"
      },
      "occurrencePeriod": {
        "start": "2021-10-11T06:41:49+00:00",
        "end": "2021-10-11T07:41:49+00:00"
      },
      "reasonReference": [ {
        "reference": "urn:uuid:b193d055-755c-484c-9258-013d0c93cad6"
      } ]
    }
  }, {
    "fullUrl": "urn:uuid:a82e1fc6-2071-4199-bef6-60de79fa2e28",
    "resource": {
      "resourceType": "Practitioner",
      "id": "a82e1fc6-2071-4199-bef6-60de79fa2e28",
      "active": true,
      "telecom": [ {
        "system": "phone",
        "value": "tel:01233505450"
      } ],
      "address": [ {
        "type": "physical",
        "line": [ "Kingston House", "The Long Barrow", "Orbital Park", "Ashford", "Kent" ],
        "postalCode": "TN24 0GP"
      } ]
    }
  }, {
    "fullUrl": "urn:uuid:c0c471fc-ed06-43af-9fc2-bb62c7728043",
    "resource": {
      "resourceType": "Composition",
      "id": "c0c471fc-ed06-43af-9fc2-bb62c7728043",
      "identifier": {
        "use": "usual",
        "value": "895062D0-60A8-4EB4-9017-5F489D53694D"
      },
      "status": "final",
      "type": {
        "coding": [ {
          "system": "http://snomed.info/sct",
          "code": "371531000",
          "display": "Report of clinical encounter (record artifact)"
        } ]
      },
      "subject": {
        "reference": "urn:uuid:e4f3fe75-ac3a-4b09-b7b3-2b06e1781241"
      },
      "encounter": {
        "reference": "urn:uuid:77bf084e-2a81-43ce-a9a9-6f0da5e6fd43"
      },
      "date": "2021-10-11T06:41:49+00:00",
      "author": [ {
        "reference": "urn:uuid:b1a3745d-b7c0-4930-a33e-2c3388089ea7"
      } ],
      "title": "111 Report",
      "confidentiality": "R",
      "section": [ {
        "section": [ {
          "title": "Patient's Reported Condition",
          "text": {
            "status": "generated",
            "div": "<div xmlns=\"http://www.w3.org/1999/xhtml\">&lt;content&gt;&amp;lt;CLEO Ref: 2100310450&amp;gt; Test Call &lt;br/&gt;\n                                                    &lt;/content&gt;</div>"
          }
        }, {
          "title": "Pathways Disposition",
          "text": {
            "status": "generated",
            "div": "<div xmlns=\"http://www.w3.org/1999/xhtml\">&lt;content&gt;If a pharmacy service is not available contact the GP practice during normal working hours. (Dx10)&lt;/content&gt;\n                                                    &lt;br/&gt;\n                                                    &lt;br/&gt;\n                                                    &lt;content&gt;Selected Service: 1335970392, Out of Hours GP Service (Waveney) - Kirkley Mill Health Centre, Lowestoft, 111&lt;/content&gt;\n                                                    &lt;br/&gt;</div>"
          }
        }, {
          "title": "Consultation Summary",
          "text": {
            "status": "generated",
            "div": "<div xmlns=\"http://www.w3.org/1999/xhtml\">&lt;content&gt;\n                                                        &lt;content&gt;Worst acne feature, blackheads or whiteheads&lt;/content&gt;\n                                                        &lt;br/&gt;\n                                                        &lt;content&gt;Acne&lt;/content&gt;\n                                                        &lt;br/&gt;\n                                                        &lt;content&gt;Warm to touch&lt;/content&gt;\n                                                        &lt;br/&gt;\n                                                        &lt;content&gt;Illness - test&lt;/content&gt;\n                                                        &lt;br/&gt;\n                                                    &lt;/content&gt;</div>"
          }
        }, {
          "title": "Pathways Assessment",
          "text": {
            "status": "generated",
            "div": "<div xmlns=\"http://www.w3.org/1999/xhtml\">&lt;content&gt;An injury or health problem was the reason for the contact.&lt;/content&gt;\n                                                    &lt;br/&gt;\n                                                    &lt;content&gt;Heavy bleeding had not occurred in the previous 2 hours.&lt;/content&gt;\n                                                    &lt;br/&gt;\n                                                    &lt;content&gt;An illness or health problem was the main problem. - test&lt;/content&gt;\n                                                    &lt;br/&gt;\n                                                    &lt;content&gt;The individual was not fighting for breath.&lt;/content&gt;\n                                                    &lt;br/&gt;\n                                                    &lt;content&gt;The main reason for the assessment was not an allergic reaction, heart attack, chest/upper back pain, probable stroke, recent fit/seizure or suicide attempt.&lt;/content&gt;\n                                                    &lt;br/&gt;\n                                                    &lt;content&gt;The main reason for contact was not new confusion, declared diabetic hypo/hyperglycaemia, or ICD shock.&lt;/content&gt;\n                                                    &lt;br/&gt;\n                                                    &lt;content&gt;The skin on the torso felt normal, warm or hot.&lt;/content&gt;\n                                                    &lt;br/&gt;\n                                                    &lt;content&gt;The main problem was not a rash, itch, jaundice, skin lumps or abnormal bruising.&lt;/content&gt;\n                                                    &lt;br/&gt;\n                                                    &lt;content&gt;The main problem was acne, spots or pimples.&lt;/content&gt;\n                                                    &lt;br/&gt;\n                                                    &lt;content&gt;The worst problem with the acne was blackheads or white heads.&lt;/content&gt;\n                                                    &lt;br/&gt;\n                                                    &lt;content&gt;The problem had not persisted for 3 months or got worse over that time.&lt;/content&gt;\n                                                    &lt;br/&gt;</div>"
          }
        }, {
          "title": "Advice Given",
          "text": {
            "status": "generated",
            "div": "<div xmlns=\"http://www.w3.org/1999/xhtml\">&lt;content&gt;Speak to a pharmacist for advice on suitable treatment.&lt;/content&gt;\n                                                    &lt;br/&gt;\n                                                    &lt;content&gt;If there are any new symptoms, or if the condition gets worse, changes or you have any other concerns, call us back.&lt;/content&gt;\n                                                    &lt;br/&gt;</div>"
          }
        }, {
          "title": "SCR Consent",
          "text": {
            "status": "generated",
            "div": "<div xmlns=\"http://www.w3.org/1999/xhtml\">&lt;content&gt;Consent given for SCR sharing&lt;br/&gt;\n                                                        &lt;br/&gt;\n                                                    &lt;/content&gt;</div>"
          }
        } ]
      }, {
        "title": "ReferralRequest",
        "entry": [ {
          "reference": "urn:uuid:ab925fbf-2419-4dad-b609-a9b20075ee16"
        } ]
      } ]
    }
  }, {
    "fullUrl": "urn:uuid:cfddd4cc-43be-4f70-9547-ac323b838755",
    "resource": {
      "resourceType": "Consent",
      "id": "cfddd4cc-43be-4f70-9547-ac323b838755",
      "identifier": {
        "use": "usual",
        "value": "895062D0-60A8-4EB4-9017-5F489D53694D"
      },
      "status": "active",
      "patient": {
        "reference": "urn:uuid:e4f3fe75-ac3a-4b09-b7b3-2b06e1781241"
      },
      "period": {
        "start": "2021-05-13T17:24:56+00:00"
      },
      "consentingParty": [ {
        "reference": "urn:uuid:e4f3fe75-ac3a-4b09-b7b3-2b06e1781241"
      } ],
      "action": [ {
        "coding": [ {
          "system": "http://snomed.info/sct",
          "code": "425691002",
          "display": "Consent given for electronic record sharing"
        } ],
        "text": "Consent given for electronic record sharing"
      } ],
      "organization": [ {
        "reference": "urn:uuid:17972e4b-88a4-464c-84a7-65d4a0f73eda"
      } ],
      "policyRule": "http://hl7.org/fhir/ConsentPolicy/opt-out",
      "data": [ {
        "meaning": "related",
        "reference": {
          "reference": "urn:uuid:77bf084e-2a81-43ce-a9a9-6f0da5e6fd43"
        }
      } ]
    }
  }, {
    "fullUrl": "urn:uuid:b193d055-755c-484c-9258-013d0c93cad6",
    "resource": {
      "resourceType": "Condition",
      "id": "b193d055-755c-484c-9258-013d0c93cad6",
      "clinicalStatus": "active",
      "verificationStatus": "unknown",
      "subject": {
        "reference": "urn:uuid:e4f3fe75-ac3a-4b09-b7b3-2b06e1781241"
      },
      "context": {
        "reference": "urn:uuid:77bf084e-2a81-43ce-a9a9-6f0da5e6fd43"
      }
    }
  }, {
    "fullUrl": "urn:uuid:db1a0748-c045-4fb4-8bab-f4f491a8c9e5",
    "resource": {
      "resourceType": "Observation",
      "id": "db1a0748-c045-4fb4-8bab-f4f491a8c9e5",
      "status": "final",
      "code": {
        "coding": [ {
          "system": "http://snomed.info/sct",
          "code": "33962009",
          "display": "Presenting complaint"
        } ]
      },
      "subject": {
        "reference": "urn:uuid:e4f3fe75-ac3a-4b09-b7b3-2b06e1781241"
      },
      "context": {
        "reference": "urn:uuid:77bf084e-2a81-43ce-a9a9-6f0da5e6fd43"
      },
      "valueString": "<CLEO Ref: 2100310450> Test Call "
    }
  }, {
    "fullUrl": "urn:uuid:510309eb-71bb-4e7c-af16-ed4e62723ea5",
    "resource": {
      "resourceType": "PractitionerRole",
      "id": "510309eb-71bb-4e7c-af16-ed4e62723ea5",
      "practitioner": {
        "reference": "urn:uuid:b1a3745d-b7c0-4930-a33e-2c3388089ea7"
      },
      "organization": {
        "reference": "urn:uuid:400bb99c-0b5c-4c3c-b8e1-7047138cd241"
      },
      "code": [ {
        "coding": [ {
          "system": "2.16.840.1.113883.2.1.3.2.4.17.196",
          "code": "NR1690",
          "display": "Call Operator"
        } ]
      } ]
    }
  }, {
    "fullUrl": "urn:uuid:400bb99c-0b5c-4c3c-b8e1-7047138cd241",
    "resource": {
      "resourceType": "Organization",
      "id": "400bb99c-0b5c-4c3c-b8e1-7047138cd241",
      "identifier": [ {
        "value": "NTN08"
      } ],
      "name": "Norfolk and Wisbech 111"
    }
  }, {
    "fullUrl": "urn:uuid:f87e559b-a6de-4f83-ad36-35f5f9bf8b7c",
    "resource": {
      "resourceType": "RelatedPerson",
      "id": "f87e559b-a6de-4f83-ad36-35f5f9bf8b7c",
      "patient": {
        "reference": "urn:uuid:e4f3fe75-ac3a-4b09-b7b3-2b06e1781241"
      },
      "relationship": {
        "coding": [ {
          "system": "http://hl7.org/fhir/v2/0131",
          "code": "C",
          "display": "Emergency Contact"
        } ]
      },
      "telecom": [ {
        "system": "phone",
        "value": "tel:01233123123"
      } ]
    }
  }, {
    "fullUrl": "urn:uuid:c4ac5594-b9e0-479b-8ba2-01c82939d6d9",
    "resource": {
      "resourceType": "Device",
      "id": "c4ac5594-b9e0-479b-8ba2-01c82939d6d9",
      "model": "111 Adaptor",
      "version": "1.0.0"
    }
  }, {
    "fullUrl": "urn:uuid:09d89a69-350d-4d1b-b80e-974a8ef28ed1",
    "resource": {
      "resourceType": "List",
      "id": "09d89a69-350d-4d1b-b80e-974a8ef28ed1",
      "status": "current",
      "mode": "working",
      "title": "111 Report List",
      "code": {
        "coding": [ {
          "system": "http://snomed.info/sct",
          "code": "225390008",
          "display": "Triage"
        } ]
      },
      "subject": {
        "reference": "urn:uuid:e4f3fe75-ac3a-4b09-b7b3-2b06e1781241"
      },
      "encounter": {
        "reference": "urn:uuid:77bf084e-2a81-43ce-a9a9-6f0da5e6fd43"
      },
      "date": "2021-10-11T06:41:50+00:00",
      "source": {
        "reference": "urn:uuid:c4ac5594-b9e0-479b-8ba2-01c82939d6d9"
      },
      "orderedBy": {
        "coding": [ {
          "system": "http://hl7.org/fhir/list-order",
          "code": "event-date",
          "display": "Sorted by Event Date"
        } ]
      },
      "entry": [ {
        "item": {
          "reference": "urn:uuid:0efab702-f296-4cab-9118-83a11da62e29"
        }
      }, {
        "item": {
          "reference": "urn:uuid:3951f8b9-4a15-4284-9341-b14254ac77a8"
        }
      }, {
        "item": {
          "reference": "urn:uuid:4c21e24a-9232-42ed-b6bb-9536e4299d13"
        }
      }, {
        "item": {
          "reference": "urn:uuid:b1a3745d-b7c0-4930-a33e-2c3388089ea7"
        }
      }, {
        "item": {
          "reference": "urn:uuid:b193d055-755c-484c-9258-013d0c93cad6"
        }
      }, {
        "item": {
          "reference": "urn:uuid:4c55ca8f-32ca-4be6-8d58-f5deae625fdd"
        }
      }, {
        "item": {
          "reference": "urn:uuid:17972e4b-88a4-464c-84a7-65d4a0f73eda"
        }
      }, {
        "item": {
          "reference": "urn:uuid:a82e1fc6-2071-4199-bef6-60de79fa2e28"
        }
      }, {
        "item": {
          "reference": "urn:uuid:db1a0748-c045-4fb4-8bab-f4f491a8c9e5"
        }
      }, {
        "item": {
          "reference": "urn:uuid:f87e559b-a6de-4f83-ad36-35f5f9bf8b7c"
        }
      }, {
        "item": {
          "reference": "urn:uuid:400bb99c-0b5c-4c3c-b8e1-7047138cd241"
        }
      }, {
        "item": {
          "reference": "urn:uuid:ab925fbf-2419-4dad-b609-a9b20075ee16"
        }
      } ]
    }
  } ]
}