{
  "resourceType": "Bundle",
  "identifier": {
    "type": {
      "text": "ClinicalDocument VersionNumber"
    },
    "value": "1"
  },
  "type": "message",
  "entry": [ {
    "fullUrl": "urn:uuid:05040617-33BA-4344-AA59-281CF2FE63CA",
    "resource": {
      "resourceType": "MessageHeader",
      "id": "05040617-33BA-4344-AA59-281CF2FE63CA",
      "event": {
        "system": "https://fhir.nhs.uk/STU3/CodeSystem/EventType-1",
        "code": "referral-1",
        "display": "Referral"
      },
      "destination": [ {
        "endpoint": "urn:nhs-uk:addressing:ods:FHR04RPX:DOSServiceID:2000038667"
      } ],
      "timestamp": "2021-04-06T15:19:34.000+00:00",
      "source": {
        "name": "NHS 111 Adaptor",
        "endpoint": "http://localhost:8080/report"
      },
      "reason": {
        "coding": [ {
          "system": "urn:nhs-itk:ns:201005:interaction",
          "code": "urn:nhs-itk:interaction:primaryOutofHourRecipientNHS111CDADocument-v2-0"
        } ]
      }
    }
  }, {
    "fullUrl": "urn:uuid:09c22cd3-e943-467a-8cfe-9cec11e27230",
    "resource": {
      "resourceType": "Encounter",
      "id": "09c22cd3-e943-467a-8cfe-9cec11e27230",
      "identifier": [ {
        "system": "2.16.840.1.113883.2.1.3.2.4.18.34",
        "value": "AdastraCaseGUID34"
      }, {
        "system": "2.16.840.1.113883.2.1.3.2.4.18.35",
        "value": "AdastraCaseID35"
      }, {
        "system": "2.16.840.1.113883.2.1.3.2.4.18.49",
        "value": "AdastraCaseGUID49"
      } ],
      "status": "finished",
      "type": [ {
        "text": "111 Encounter Referral"
      } ],
      "subject": {
        "reference": "urn:uuid:0a34ae86-36f7-4215-ad89-22b1452cd94d"
      },
      "participant": [ {
        "type": [ {
          "coding": [ {
            "system": "http://hl7.org/fhir/ValueSet/encounter-participant-type",
            "code": "PPRF",
            "display": "Author"
          } ]
        } ],
        "individual": {
          "reference": "urn:uuid:5ad13d97-89d9-4e1b-96b0-13029b2852fb"
        }
      }, {
        "type": [ {
          "text": "Informant"
        } ],
        "individual": {
          "reference": "urn:uuid:4686070b-497e-413a-b5ce-3a8670515d30"
        }
      }, {
        "type": [ {
          "coding": [ {
            "system": "http://hl7.org/fhir/ValueSet/encounter-participant-type",
            "code": "ATND",
            "display": "Responsible Party"
          } ]
        } ],
        "individual": {
          "reference": "urn:uuid:bf0867e1-e4b0-4c37-956e-9660672f4408"
        }
      } ],
      "period": {
        "start": "2021-04-06T15:19:34+00:00"
      },
      "location": [ {
        "location": {
          "reference": "urn:uuid:d786b93e-088c-429e-b155-723b44cf97eb"
        },
        "status": "completed"
      } ],
      "serviceProvider": {
        "reference": "urn:uuid:c61cb0a1-899b-4f25-b177-dbb334eb90e2"
      }
    }
  }, {
    "fullUrl": "urn:uuid:c61cb0a1-899b-4f25-b177-dbb334eb90e2",
    "resource": {
      "resourceType": "Organization",
      "id": "c61cb0a1-899b-4f25-b177-dbb334eb90e2",
      "active": true,
      "type": [ {
        "text": "CST"
      } ],
      "name": "CustodianName"
    }
  }, {
    "fullUrl": "urn:uuid:5ad13d97-89d9-4e1b-96b0-13029b2852fb",
    "resource": {
      "resourceType": "Practitioner",
      "id": "5ad13d97-89d9-4e1b-96b0-13029b2852fb",
      "active": true,
      "name": [ {
        "use": "official",
        "family": "AuthorAssignedPerson FamilyName",
        "given": [ "AuthorAssignedPerson GivenName" ]
      } ]
    }
  }, {
    "fullUrl": "urn:uuid:4686070b-497e-413a-b5ce-3a8670515d30",
    "resource": {
      "resourceType": "RelatedPerson",
      "id": "4686070b-497e-413a-b5ce-3a8670515d30",
      "active": true,
      "patient": {
        "reference": "urn:uuid:0a34ae86-36f7-4215-ad89-22b1452cd94d"
      },
      "relationship": {
        "coding": [ {
          "system": "2.16.840.1.113883.2.1.3.2.4.16.45",
          "code": "16",
          "display": "Relative"
        } ]
      },
      "name": [ {
        "text": "RelatedPerson Name"
      } ],
      "telecom": [ {
        "system": "phone",
        "value": "tel:01111111111",
        "use": "home"
      } ],
      "gender": "unknown"
    }
  }, {
    "fullUrl": "urn:uuid:bf0867e1-e4b0-4c37-956e-9660672f4408",
    "resource": {
      "resourceType": "Practitioner",
      "id": "bf0867e1-e4b0-4c37-956e-9660672f4408",
      "active": true,
      "name": [ {
        "use": "official",
        "family": "ResponsablePartyMD FamilyName",
        "given": [ "ResponsablePartyMD GivenName" ]
      } ]
    }
  }, {
    "fullUrl": "urn:uuid:d786b93e-088c-429e-b155-723b44cf97eb",
    "resource": {
      "resourceType": "Location",
      "id": "d786b93e-088c-429e-b155-723b44cf97eb",
      "name": "Incident Location",
      "address": {
        "type": "physical",
        "line": [ "HealthCareFacility AddressLine1", "HealthCareFacility AddressLine2", "HealthCareFacility AddressLine3", "HealthCareFacility AddressLine4", "HealthCareFacility AddressLine5" ],
        "postalCode": "LOH25 4NS"
      }
    }
  }, {
    "fullUrl": "urn:uuid:0a34ae86-36f7-4215-ad89-22b1452cd94d",
    "resource": {
      "resourceType": "Patient",
      "id": "0a34ae86-36f7-4215-ad89-22b1452cd94d",
      "active": true,
      "name": [ {
        "use": "official",
        "family": "Patient Family Name",
        "given": [ "Patient Given Name" ]
      } ],
      "telecom": [ {
        "system": "phone",
        "value": "tel:000000000000",
        "use": "home"
      }, {
        "system": "phone",
        "value": "tel:000000000000"
      } ],
      "gender": "other",
      "birthDate": "1990-02-02",
      "address": [ {
        "use": "home",
        "line": [ "Home Address Line 1", "Home Address Line 2", "Home Address Line 3", "Home Address Line 4", "Home Address Line 5" ],
        "postalCode": "HA25 4NS"
      }, {
        "type": "physical",
        "line": [ "Home Address Line 1", "Home Address Line 2", "Home Address Line 3", "Home Address Line 4", "Home Address Line 5" ],
        "postalCode": "PH25 4NS"
      } ]
    }
  }, {
    "fullUrl": "urn:uuid:8ebe9928-d30e-449a-92bc-91e70d2408e6",
    "resource": {
      "resourceType": "HealthcareService",
      "id": "8ebe9928-d30e-449a-92bc-91e70d2408e6",
      "active": true,
      "providedBy": {
        "reference": "urn:uuid:94dd9875-8ac9-4fdc-b21e-b9415f2a3684"
      },
      "location": [ {
        "reference": "urn:uuid:11d5597a-7ed9-44ff-be31-b2b31ca28b9a"
      } ],
      "name": "InformationRecipient IntendedRecipient Name FHR0"
    }
  }, {
    "fullUrl": "urn:uuid:11d5597a-7ed9-44ff-be31-b2b31ca28b9a",
    "resource": {
      "resourceType": "Location",
      "id": "11d5597a-7ed9-44ff-be31-b2b31ca28b9a",
      "managingOrganization": {
        "reference": "urn:uuid:94dd9875-8ac9-4fdc-b21e-b9415f2a3684"
      }
    }
  }, {
    "fullUrl": "urn:uuid:94dd9875-8ac9-4fdc-b21e-b9415f2a3684",
    "resource": {
      "resourceType": "Organization",
      "id": "94dd9875-8ac9-4fdc-b21e-b9415f2a3684",
      "identifier": [ {
        "value": "FHR04RPX"
      } ],
      "type": [ {
        "coding": [ {
          "code": "PRCP",
          "display": "InformationRecipient IntendedRecipient Name FHR0"
        } ]
      } ],
      "name": "InformationRecipient IntendedRecipient Name FHR0"
    }
  }, {
    "fullUrl": "urn:uuid:7ded755d-2b7f-41ac-8038-28a726c82843",
    "resource": {
      "resourceType": "ReferralRequest",
      "id": "7ded755d-2b7f-41ac-8038-28a726c82843",
      "status": "active",
      "intent": "plan",
      "priority": "routine",
      "subject": {
        "reference": "urn:uuid:0a34ae86-36f7-4215-ad89-22b1452cd94d"
      },
      "context": {
        "reference": "urn:uuid:09c22cd3-e943-467a-8cfe-9cec11e27230"
      },
      "occurrencePeriod": {
        "start": "2021-10-01T07:34:01+00:00",
        "end": "2021-10-01T08:34:01+00:00"
      },
      "authoredOn": "2021-04-06T15:19:29+00:00",
      "requester": {
        "agent": {
          "reference": "urn:uuid:388f3661-2785-42a7-a875-c6d0f473fbb3"
        },
        "onBehalfOf": {
          "reference": "urn:uuid:c61cb0a1-899b-4f25-b177-dbb334eb90e2"
        }
      },
      "recipient": [ {
        "reference": "urn:uuid:8ebe9928-d30e-449a-92bc-91e70d2408e6"
      } ],
      "reasonReference": [ {
        "reference": "urn:uuid:dc5ac4e7-e055-4428-aba9-499c0e280fb5"
      } ],
      "supportingInfo": [ {
        "reference": "urn:uuid:1d1c13e4-4b32-44fd-81a2-e78193117e5e"
      } ]
    }
  }, {
    "fullUrl": "urn:uuid:1d1c13e4-4b32-44fd-81a2-e78193117e5e",
    "resource": {
      "resourceType": "ProcedureRequest",
      "id": "1d1c13e4-4b32-44fd-81a2-e78193117e5e",
      "status": "active",
      "intent": "plan",
      "priority": "routine",
      "doNotPerform": false,
      "code": {
        "coding": [ {
          "system": "2.16.840.1.113883.2.1.3.2.4.17.325",
          "code": "DispoCodeDx87",
          "display": "DispoName - Repeat Prescription required within 24 hours"
        } ]
      },
      "subject": {
        "reference": "urn:uuid:0a34ae86-36f7-4215-ad89-22b1452cd94d"
      },
      "occurrencePeriod": {
        "start": "2021-10-01T07:34:01+00:00",
        "end": "2021-10-01T08:34:01+00:00"
      },
      "reasonReference": [ {
        "reference": "urn:uuid:dc5ac4e7-e055-4428-aba9-499c0e280fb5"
      } ]
    }
  }, {
    "fullUrl": "urn:uuid:cebb1856-f93e-4611-88c9-a760795a4bdd",
    "resource": {
      "resourceType": "Composition",
      "id": "cebb1856-f93e-4611-88c9-a760795a4bdd",
      "identifier": {
        "use": "usual",
        "value": "E2DF04F7-95CA-40AD-808D-797C0A89E39C"
      },
      "status": "final",
      "type": {
        "coding": [ {
          "system": "http://snomed.info/sct",
          "code": "371531000",
          "display": "Report of clinical encounter (record artifact)"
        } ]
      },
      "subject": {
        "reference": "urn:uuid:0a34ae86-36f7-4215-ad89-22b1452cd94d"
      },
      "encounter": {
        "reference": "urn:uuid:09c22cd3-e943-467a-8cfe-9cec11e27230"
      },
      "date": "2021-10-01T07:34:01+00:00",
      "author": [ {
        "reference": "urn:uuid:5ad13d97-89d9-4e1b-96b0-13029b2852fb"
      } ],
      "title": "111 Report",
      "confidentiality": "N",
      "section": [ {
        "section": [ {
          "title": "ComponentTitle - Patient's Reported Condition",
          "text": {
            "status": "generated",
            "div": "<div xmlns=\"http://www.w3.org/1999/xhtml\">&lt;content&gt;ComponentText - Pharmacy ITK Testing&lt;/content&gt;\n                                                    &lt;br/&gt;</div>"
          }
        }, {
          "title": "ComponentTitle - Pathways Disposition",
          "text": {
            "status": "generated",
            "div": "<div xmlns=\"http://www.w3.org/1999/xhtml\">ComponentText - Repeat Prescription required within 24 hours (Dx87)                                         &lt;br/&gt;\n                                                    &lt;br/&gt;                                         Selected service: Springvale, Fraser Road, Kings Worthy, Winchester&lt;br/&gt;</div>"
          }
        }, {
          "title": "ComponentTitle - Consultation Summary",
          "text": {
            "status": "generated",
            "div": "<div xmlns=\"http://www.w3.org/1999/xhtml\">ComponentText - Prescription request&lt;br/&gt;Not enough medication until surgery opens&lt;br/&gt;No medication available&lt;br/&gt;Next dose due in over 12 hours time&lt;br/&gt;</div>"
          }
        }, {
          "title": "ComponentTitle - Pathways Assessment",
          "text": {
            "status": "generated",
            "div": "<div xmlns=\"http://www.w3.org/1999/xhtml\">ComponentText - Reason for call menu - continued to next list.&lt;br/&gt;A prescription request was the main reason for the contact.&lt;br/&gt;The main reason for the contact was not a new or worsening illness.&lt;br/&gt;The individual did not have enough medication to last until the surgery next opened.&lt;br/&gt;The medication was suitable for repeat prescribing without further consultation.&lt;br/&gt;The individual had no medication available.&lt;br/&gt;The next dose was due in over 12 hours time.&lt;br/&gt;Instructions given were: The individual needs a repeat prescription.&lt;br/&gt;Directory of Services referral: Springvale, Fraser Road, Kings Worthy, Winchester&lt;br/&gt;</div>"
          }
        }, {
          "title": "ComponentTitle - Advice Given",
          "text": {
            "status": "generated",
            "div": "<div xmlns=\"http://www.w3.org/1999/xhtml\">ComponentText - I will arrange for a clinician or pharmacist to speak to the individual.&lt;br/&gt;IF THE RECOMMENDED TIMEFRAME FALLS OUTSIDE OPENING HOURS: I will arrange for a clinician to speak to the individual.&lt;br/&gt;\n                                                    &lt;br/&gt;</div>"
          }
        }, {
          "title": "ComponentTitle - Information And Advice Given"
        }, {
          "title": "ComponentTitle - Disposition",
          "text": {
            "status": "generated",
            "div": "<div xmlns=\"http://www.w3.org/1999/xhtml\">&lt;content&gt;ComponentText - Repeat Prescription required within 24 hours&lt;br/&gt;\n                                                    &lt;/content&gt;\n                                                    &lt;br/&gt;\n                                                    &lt;br/&gt;</div>"
          }
        } ]
      }, {
        "title": "CarePlan",
        "entry": [ {
          "reference": "urn:uuid:597049ff-8ad9-4c6e-b8ea-6116889fa08e"
        } ]
      }, {
        "title": "ReferralRequest",
        "entry": [ {
          "reference": "urn:uuid:7ded755d-2b7f-41ac-8038-28a726c82843"
        } ]
      }, {
        "title": "QuestionnaireResponse",
        "entry": [ {
          "reference": "urn:uuid:8e9e11ad-4238-4219-a571-5a8c87b8f7af"
        } ]
      }, {
        "title": "QuestionnaireResponse",
        "entry": [ {
          "reference": "urn:uuid:7fa3263e-6a2a-4150-89cd-2eac1767a784"
        } ]
      }, {
        "title": "QuestionnaireResponse",
        "entry": [ {
          "reference": "urn:uuid:60180f5a-26a2-48de-b01f-00e068c6d268"
        } ]
      }, {
        "title": "QuestionnaireResponse",
        "entry": [ {
          "reference": "urn:uuid:d9f34a0b-1375-4dd0-b476-cce3421f073a"
        } ]
      }, {
        "title": "QuestionnaireResponse",
        "entry": [ {
          "reference": "urn:uuid:99213fb0-4072-4131-bba6-ab690ee48df4"
        } ]
      }, {
        "title": "QuestionnaireResponse",
        "entry": [ {
          "reference": "urn:uuid:e1ad4c1e-8bd6-48cb-a507-534fbfe91c77"
        } ]
      }, {
        "title": "QuestionnaireResponse",
        "entry": [ {
          "reference": "urn:uuid:050e3977-dd44-4afc-be9a-4d5147e7c11e"
        } ]
      }, {
        "title": "QuestionnaireResponse",
        "entry": [ {
          "reference": "urn:uuid:d3952813-cc7b-4cd7-a071-e433c22bef06"
        } ]
      }, {
        "title": "QuestionnaireResponse",
        "entry": [ {
          "reference": "urn:uuid:d49a7463-80c8-48b1-a45e-389a545a5105"
        } ]
      }, {
        "title": "QuestionnaireResponse",
        "entry": [ {
          "reference": "urn:uuid:1f1fb9a8-d6c8-4da2-9acb-7f3864633890"
        } ]
      }, {
        "title": "QuestionnaireResponse",
        "entry": [ {
          "reference": "urn:uuid:db745417-f23a-41d9-808b-536df3e65a4f"
        } ]
      }, {
        "title": "QuestionnaireResponse",
        "entry": [ {
          "reference": "urn:uuid:971af8bf-e8ae-43b1-a370-4a59d5496c19"
        } ]
      }, {
        "title": "QuestionnaireResponse",
        "entry": [ {
          "reference": "urn:uuid:ead93d8f-7a83-4dab-9e5e-4eb960ed7d4c"
        } ]
      }, {
        "title": "QuestionnaireResponse",
        "entry": [ {
          "reference": "urn:uuid:dcf00d33-c62b-47ec-a0f2-88fcb57c5fbb"
        } ]
      }, {
        "title": "QuestionnaireResponse",
        "entry": [ {
          "reference": "urn:uuid:e00babc2-ca9e-4518-a4c8-d01c93eff4b1"
        } ]
      } ]
    }
  }, {
    "fullUrl": "urn:uuid:597049ff-8ad9-4c6e-b8ea-6116889fa08e",
    "resource": {
      "resourceType": "CarePlan",
      "id": "597049ff-8ad9-4c6e-b8ea-6116889fa08e",
      "status": "completed",
      "intent": "plan",
      "title": "ComponentTitle - Information And Advice Given",
      "subject": {
        "reference": "urn:uuid:0a34ae86-36f7-4215-ad89-22b1452cd94d"
      },
      "context": {
        "reference": "urn:uuid:09c22cd3-e943-467a-8cfe-9cec11e27230"
      },
      "period": {
        "start": "2021-04-06T15:19:34+00:00"
      },
      "addresses": [ {
        "reference": "urn:uuid:dc5ac4e7-e055-4428-aba9-499c0e280fb5"
      } ]
    }
  }, {
    "fullUrl": "urn:uuid:bdd28d47-ab38-4883-8537-ff3a9976e3eb",
    "resource": {
      "resourceType": "Consent",
      "id": "bdd28d47-ab38-4883-8537-ff3a9976e3eb",
      "identifier": {
        "use": "usual",
        "value": "E2DF04F7-95CA-40AD-808D-797C0A89E39C"
      },
      "status": "active",
      "patient": {
        "reference": "urn:uuid:0a34ae86-36f7-4215-ad89-22b1452cd94d"
      },
      "period": {
        "start": "2021-04-06T15:19:34+00:00"
      },
      "consentingParty": [ {
        "reference": "urn:uuid:0a34ae86-36f7-4215-ad89-22b1452cd94d"
      } ],
      "action": [ {
        "coding": [ {
          "system": "http://snomed.info/sct",
          "code": "425691002",
          "display": "Consent given for electronic record sharing"
        } ],
        "text": "Consent given for electronic record sharing"
      } ],
      "organization": [ {
        "reference": "urn:uuid:c61cb0a1-899b-4f25-b177-dbb334eb90e2"
      } ],
      "policyRule": "http://hl7.org/fhir/ConsentPolicy/opt-out",
      "data": [ {
        "meaning": "related",
        "reference": {
          "reference": "urn:uuid:09c22cd3-e943-467a-8cfe-9cec11e27230"
        }
      } ]
    }
  }, {
    "fullUrl": "urn:uuid:dc5ac4e7-e055-4428-aba9-499c0e280fb5",
    "resource": {
      "resourceType": "Condition",
      "id": "dc5ac4e7-e055-4428-aba9-499c0e280fb5",
      "clinicalStatus": "active",
      "verificationStatus": "unknown",
      "subject": {
        "reference": "urn:uuid:0a34ae86-36f7-4215-ad89-22b1452cd94d"
      },
      "context": {
        "reference": "urn:uuid:09c22cd3-e943-467a-8cfe-9cec11e27230"
      },
      "evidence": [ {
        "detail": [ {
          "reference": "urn:uuid:8e9e11ad-4238-4219-a571-5a8c87b8f7af"
        } ]
      }, {
        "detail": [ {
          "reference": "urn:uuid:7fa3263e-6a2a-4150-89cd-2eac1767a784"
        } ]
      }, {
        "detail": [ {
          "reference": "urn:uuid:60180f5a-26a2-48de-b01f-00e068c6d268"
        } ]
      }, {
        "detail": [ {
          "reference": "urn:uuid:d9f34a0b-1375-4dd0-b476-cce3421f073a"
        } ]
      }, {
        "detail": [ {
          "reference": "urn:uuid:99213fb0-4072-4131-bba6-ab690ee48df4"
        } ]
      }, {
        "detail": [ {
          "reference": "urn:uuid:e1ad4c1e-8bd6-48cb-a507-534fbfe91c77"
        } ]
      }, {
        "detail": [ {
          "reference": "urn:uuid:050e3977-dd44-4afc-be9a-4d5147e7c11e"
        } ]
      }, {
        "detail": [ {
          "reference": "urn:uuid:d3952813-cc7b-4cd7-a071-e433c22bef06"
        } ]
      }, {
        "detail": [ {
          "reference": "urn:uuid:d49a7463-80c8-48b1-a45e-389a545a5105"
        } ]
      }, {
        "detail": [ {
          "reference": "urn:uuid:1f1fb9a8-d6c8-4da2-9acb-7f3864633890"
        } ]
      }, {
        "detail": [ {
          "reference": "urn:uuid:db745417-f23a-41d9-808b-536df3e65a4f"
        } ]
      }, {
        "detail": [ {
          "reference": "urn:uuid:971af8bf-e8ae-43b1-a370-4a59d5496c19"
        } ]
      }, {
        "detail": [ {
          "reference": "urn:uuid:ead93d8f-7a83-4dab-9e5e-4eb960ed7d4c"
        } ]
      }, {
        "detail": [ {
          "reference": "urn:uuid:dcf00d33-c62b-47ec-a0f2-88fcb57c5fbb"
        } ]
      }, {
        "detail": [ {
          "reference": "urn:uuid:e00babc2-ca9e-4518-a4c8-d01c93eff4b1"
        } ]
      } ]
    }
  }, {
    "fullUrl": "urn:uuid:8e9e11ad-4238-4219-a571-5a8c87b8f7af",
    "resource": {
      "resourceType": "QuestionnaireResponse",
      "id": "8e9e11ad-4238-4219-a571-5a8c87b8f7af",
      "identifier": {
        "value": "60319"
      },
      "questionnaire": {
        "reference": "urn:uuid:6861cca2-7b73-4264-a591-06bfcd655c03"
      },
      "status": "completed",
      "subject": {
        "reference": "urn:uuid:0a34ae86-36f7-4215-ad89-22b1452cd94d"
      },
      "context": {
        "reference": "urn:uuid:09c22cd3-e943-467a-8cfe-9cec11e27230"
      },
      "authored": "2021-04-06T15:19:34+00:00",
      "item": [ {
        "linkId": "Tx220109",
        "text": "What is the reason for the contact?",
        "answer": [ {
          "valueString": "more"
        } ]
      } ]
    }
  }, {
    "fullUrl": "urn:uuid:6861cca2-7b73-4264-a591-06bfcd655c03",
    "resource": {
      "resourceType": "Questionnaire",
      "id": "6861cca2-7b73-4264-a591-06bfcd655c03",
      "identifier": [ {
        "value": "60319"
      } ],
      "version": "2021-04-06T15:19:34.083Z",
      "status": "active",
      "experimental": false,
      "date": "2021-04-06T15:19:34+00:00",
      "publisher": "User ID: 'HADFIELDR' User name: 'Ryan Hadfield' User skill set: 'T3'",
      "lastReviewDate": "2021-04-06",
      "contact": [ {
        "telecom": [ {
          "system": "phone",
          "value": "0111 111 1111"
        } ]
      } ],
      "subjectType": [ "Patient" ],
      "item": [ {
        "linkId": "60319",
        "prefix": "5",
        "text": "What is the reason for the contact?",
        "type": "choice",
        "required": true,
        "repeats": false,
        "option": [ {
          "valueString": "an injury or other health problem, Selected: false"
        }, {
          "valueString": "a need to access another healthcare service, Selected: false"
        }, {
          "valueString": "a healthcare professional requesting contact with another clinician, Selected: false"
        }, {
          "valueString": "a report of results or tests, Selected: false"
        }, {
          "valueString": "more, Selected: true"
        } ]
      } ]
    }
  }, {
    "fullUrl": "urn:uuid:7fa3263e-6a2a-4150-89cd-2eac1767a784",
    "resource": {
      "resourceType": "QuestionnaireResponse",
      "id": "7fa3263e-6a2a-4150-89cd-2eac1767a784",
      "identifier": {
        "value": "60319"
      },
      "questionnaire": {
        "reference": "urn:uuid:294e3b7b-9b69-4101-8cdc-0b63af87ca02"
      },
      "status": "completed",
      "subject": {
        "reference": "urn:uuid:0a34ae86-36f7-4215-ad89-22b1452cd94d"
      },
      "context": {
        "reference": "urn:uuid:09c22cd3-e943-467a-8cfe-9cec11e27230"
      },
      "authored": "2021-04-06T15:19:34+00:00",
      "item": [ {
        "linkId": "Tx221793",
        "text": "STRING:to'Social&information'-further'Callreason'menu",
        "answer": [ {
          "valueString": "\"present\""
        } ]
      } ]
    }
  }, {
    "fullUrl": "urn:uuid:294e3b7b-9b69-4101-8cdc-0b63af87ca02",
    "resource": {
      "resourceType": "Questionnaire",
      "id": "294e3b7b-9b69-4101-8cdc-0b63af87ca02",
      "identifier": [ {
        "value": "60319"
      } ],
      "version": "2021-04-06T15:19:34.083Z",
      "status": "active",
      "experimental": false,
      "date": "2021-04-06T15:19:34+00:00",
      "publisher": "User ID: 'HADFIELDR' User name: 'Ryan Hadfield' User skill set: 'T3'",
      "lastReviewDate": "2021-04-06",
      "contact": [ {
        "telecom": [ {
          "system": "phone",
          "value": "0111 111 1111"
        } ]
      } ],
      "subjectType": [ "Patient" ],
      "item": [ {
        "linkId": "60319",
        "prefix": "600",
        "text": "STRING:to'Social&information'-further'Callreason'menu",
        "type": "choice",
        "required": true,
        "repeats": false,
        "option": [ {
          "valueString": "\"present\", Selected: true"
        } ]
      } ]
    }
  }, {
    "fullUrl": "urn:uuid:60180f5a-26a2-48de-b01f-00e068c6d268",
    "resource": {
      "resourceType": "QuestionnaireResponse",
      "id": "60180f5a-26a2-48de-b01f-00e068c6d268",
      "identifier": {
        "value": "60319"
      },
      "questionnaire": {
        "reference": "urn:uuid:a426f5e6-3018-4c8c-ad16-13a160080c69"
      },
      "status": "completed",
      "subject": {
        "reference": "urn:uuid:0a34ae86-36f7-4215-ad89-22b1452cd94d"
      },
      "context": {
        "reference": "urn:uuid:09c22cd3-e943-467a-8cfe-9cec11e27230"
      },
      "authored": "2021-04-06T15:19:34+00:00"
    }
  }, {
    "fullUrl": "urn:uuid:a426f5e6-3018-4c8c-ad16-13a160080c69",
    "resource": {
      "resourceType": "Questionnaire",
      "id": "a426f5e6-3018-4c8c-ad16-13a160080c69",
      "identifier": [ {
        "value": "60319"
      } ],
      "version": "2021-04-06T15:19:34.083Z",
      "status": "active",
      "experimental": false,
      "date": "2021-04-06T15:19:34+00:00",
      "publisher": "User ID: 'HADFIELDR' User name: 'Ryan Hadfield' User skill set: 'T3'",
      "lastReviewDate": "2021-04-06",
      "contact": [ {
        "telecom": [ {
          "system": "phone",
          "value": "0111 111 1111"
        } ]
      } ],
      "subjectType": [ "Patient" ]
    }
  }, {
    "fullUrl": "urn:uuid:d9f34a0b-1375-4dd0-b476-cce3421f073a",
    "resource": {
      "resourceType": "QuestionnaireResponse",
      "id": "d9f34a0b-1375-4dd0-b476-cce3421f073a",
      "identifier": {
        "value": "60319"
      },
      "questionnaire": {
        "reference": "urn:uuid:09812a60-af15-4a93-8869-e15221d42da5"
      },
      "status": "completed",
      "subject": {
        "reference": "urn:uuid:0a34ae86-36f7-4215-ad89-22b1452cd94d"
      },
      "context": {
        "reference": "urn:uuid:09c22cd3-e943-467a-8cfe-9cec11e27230"
      },
      "authored": "2021-04-06T15:19:34+00:00",
      "item": [ {
        "linkId": "Tx221804",
        "text": "STRING:transfertofurthermenuquestionestablishedinEntryFlow",
        "answer": [ {
          "valueString": "\"present\""
        } ]
      } ]
    }
  }, {
    "fullUrl": "urn:uuid:09812a60-af15-4a93-8869-e15221d42da5",
    "resource": {
      "resourceType": "Questionnaire",
      "id": "09812a60-af15-4a93-8869-e15221d42da5",
      "identifier": [ {
        "value": "60319"
      } ],
      "version": "2021-04-06T15:19:34.083Z",
      "status": "active",
      "experimental": false,
      "date": "2021-04-06T15:19:34+00:00",
      "publisher": "User ID: 'HADFIELDR' User name: 'Ryan Hadfield' User skill set: 'T3'",
      "lastReviewDate": "2021-04-06",
      "contact": [ {
        "telecom": [ {
          "system": "phone",
          "value": "0111 111 1111"
        } ]
      } ],
      "subjectType": [ "Patient" ],
      "item": [ {
        "linkId": "60319",
        "prefix": "41",
        "text": "STRING:transfertofurthermenuquestionestablishedinEntryFlow",
        "type": "choice",
        "required": true,
        "repeats": false,
        "option": [ {
          "valueString": "\"present\", Selected: true"
        } ]
      } ]
    }
  }, {
    "fullUrl": "urn:uuid:99213fb0-4072-4131-bba6-ab690ee48df4",
    "resource": {
      "resourceType": "QuestionnaireResponse",
      "id": "99213fb0-4072-4131-bba6-ab690ee48df4",
      "identifier": {
        "value": "60319"
      },
      "questionnaire": {
        "reference": "urn:uuid:f6c16646-bd5f-41f6-80ee-127ee4b1bee9"
      },
      "status": "completed",
      "subject": {
        "reference": "urn:uuid:0a34ae86-36f7-4215-ad89-22b1452cd94d"
      },
      "context": {
        "reference": "urn:uuid:09c22cd3-e943-467a-8cfe-9cec11e27230"
      },
      "authored": "2021-04-06T15:19:34+00:00",
      "item": [ {
        "linkId": "Tx224998",
        "text": "SYSTEM_COVIDLEVEL2",
        "answer": [ {
          "valueString": "==\"covidlevel2\""
        } ]
      } ]
    }
  }, {
    "fullUrl": "urn:uuid:f6c16646-bd5f-41f6-80ee-127ee4b1bee9",
    "resource": {
      "resourceType": "Questionnaire",
      "id": "f6c16646-bd5f-41f6-80ee-127ee4b1bee9",
      "identifier": [ {
        "value": "60319"
      } ],
      "version": "2021-04-06T15:19:34.083Z",
      "status": "active",
      "experimental": false,
      "date": "2021-04-06T15:19:34+00:00",
      "publisher": "User ID: 'HADFIELDR' User name: 'Ryan Hadfield' User skill set: 'T3'",
      "lastReviewDate": "2021-04-06",
      "contact": [ {
        "telecom": [ {
          "system": "phone",
          "value": "0111 111 1111"
        } ]
      } ],
      "subjectType": [ "Patient" ],
      "item": [ {
        "linkId": "60319",
        "prefix": "5900",
        "text": "SYSTEM_COVIDLEVEL2",
        "type": "choice",
        "required": true,
        "repeats": false,
        "option": [ {
          "valueString": "==\"covidlevel2\", Selected: true"
        }, {
          "valueString": "*, Selected: false"
        } ]
      } ]
    }
  }, {
    "fullUrl": "urn:uuid:e1ad4c1e-8bd6-48cb-a507-534fbfe91c77",
    "resource": {
      "resourceType": "QuestionnaireResponse",
      "id": "e1ad4c1e-8bd6-48cb-a507-534fbfe91c77",
      "identifier": {
        "value": "60319"
      },
      "questionnaire": {
        "reference": "urn:uuid:eae71211-a16e-4510-96bd-9dcb9e3251c5"
      },
      "status": "completed",
      "subject": {
        "reference": "urn:uuid:0a34ae86-36f7-4215-ad89-22b1452cd94d"
      },
      "context": {
        "reference": "urn:uuid:09c22cd3-e943-467a-8cfe-9cec11e27230"
      },
      "authored": "2021-04-06T15:19:34+00:00",
      "item": [ {
        "linkId": "Tx225069",
        "text": "What is the reason for the contact?",
        "answer": [ {
          "valueString": "a prescription request"
        } ]
      } ]
    }
  }, {
    "fullUrl": "urn:uuid:eae71211-a16e-4510-96bd-9dcb9e3251c5",
    "resource": {
      "resourceType": "Questionnaire",
      "id": "eae71211-a16e-4510-96bd-9dcb9e3251c5",
      "identifier": [ {
        "value": "60319"
      } ],
      "version": "2021-04-06T15:19:34.083Z",
      "status": "active",
      "experimental": false,
      "date": "2021-04-06T15:19:34+00:00",
      "publisher": "User ID: 'HADFIELDR' User name: 'Ryan Hadfield' User skill set: 'T3'",
      "lastReviewDate": "2021-04-06",
      "contact": [ {
        "telecom": [ {
          "system": "phone",
          "value": "0111 111 1111"
        } ]
      } ],
      "subjectType": [ "Patient" ],
      "item": [ {
        "linkId": "60319",
        "prefix": "6000",
        "text": "What is the reason for the contact?",
        "type": "choice",
        "required": true,
        "repeats": false,
        "option": [ {
          "valueString": "a child protection/vulnerable adult concern (specify), Selected: false"
        }, {
          "valueString": "a social or domestic emergency, Selected: false"
        }, {
          "valueString": "a prescription request, Selected: true"
        }, {
          "valueString": "an appointment request, Selected: false"
        }, {
          "valueString": "a request for health or medication information, Selected: false"
        }, {
          "valueString": "public health alert information, Selected: false"
        } ]
      } ]
    }
  }, {
    "fullUrl": "urn:uuid:050e3977-dd44-4afc-be9a-4d5147e7c11e",
    "resource": {
      "resourceType": "QuestionnaireResponse",
      "id": "050e3977-dd44-4afc-be9a-4d5147e7c11e",
      "identifier": {
        "value": "60319"
      },
      "questionnaire": {
        "reference": "urn:uuid:f0ef5e79-001d-4506-8339-df6e1f232cf7"
      },
      "status": "completed",
      "subject": {
        "reference": "urn:uuid:0a34ae86-36f7-4215-ad89-22b1452cd94d"
      },
      "context": {
        "reference": "urn:uuid:09c22cd3-e943-467a-8cfe-9cec11e27230"
      },
      "authored": "2021-04-06T15:19:34+00:00",
      "item": [ {
        "linkId": "Tx220957",
        "text": "Is this contact about a new or worsening illness?",
        "answer": [ {
          "valueString": "no"
        } ]
      } ]
    }
  }, {
    "fullUrl": "urn:uuid:f0ef5e79-001d-4506-8339-df6e1f232cf7",
    "resource": {
      "resourceType": "Questionnaire",
      "id": "f0ef5e79-001d-4506-8339-df6e1f232cf7",
      "identifier": [ {
        "value": "60319"
      } ],
      "version": "2021-04-06T15:19:34.083Z",
      "status": "active",
      "experimental": false,
      "date": "2021-04-06T15:19:34+00:00",
      "publisher": "User ID: 'HADFIELDR' User name: 'Ryan Hadfield' User skill set: 'T3'",
      "lastReviewDate": "2021-04-06",
      "contact": [ {
        "telecom": [ {
          "system": "phone",
          "value": "0111 111 1111"
        } ]
      } ],
      "subjectType": [ "Patient" ],
      "item": [ {
        "linkId": "60319",
        "prefix": "1400",
        "text": "Is this contact about a new or worsening illness?",
        "type": "choice",
        "required": true,
        "repeats": false,
        "option": [ {
          "valueString": "yes, Selected: false"
        }, {
          "valueString": "not sure, Selected: false"
        }, {
          "valueString": "no, Selected: true"
        } ]
      } ]
    }
  }, {
    "fullUrl": "urn:uuid:d3952813-cc7b-4cd7-a071-e433c22bef06",
    "resource": {
      "resourceType": "QuestionnaireResponse",
      "id": "d3952813-cc7b-4cd7-a071-e433c22bef06",
      "identifier": {
        "value": "60319"
      },
      "questionnaire": {
        "reference": "urn:uuid:6c3dad44-e7b6-4512-abde-d6b01a9dd246"
      },
      "status": "completed",
      "subject": {
        "reference": "urn:uuid:0a34ae86-36f7-4215-ad89-22b1452cd94d"
      },
      "context": {
        "reference": "urn:uuid:09c22cd3-e943-467a-8cfe-9cec11e27230"
      },
      "authored": "2021-04-06T15:19:34+00:00",
      "item": [ {
        "linkId": "Tx221352",
        "text": "Have you got enough medication to last until the surgery opens?",
        "answer": [ {
          "valueString": "no"
        } ]
      } ]
    }
  }, {
    "fullUrl": "urn:uuid:6c3dad44-e7b6-4512-abde-d6b01a9dd246",
    "resource": {
      "resourceType": "Questionnaire",
      "id": "6c3dad44-e7b6-4512-abde-d6b01a9dd246",
      "identifier": [ {
        "value": "60319"
      } ],
      "version": "2021-04-06T15:19:34.083Z",
      "status": "active",
      "experimental": false,
      "date": "2021-04-06T15:19:34+00:00",
      "publisher": "User ID: 'HADFIELDR' User name: 'Ryan Hadfield' User skill set: 'T3'",
      "lastReviewDate": "2021-04-06",
      "contact": [ {
        "telecom": [ {
          "system": "phone",
          "value": "0111 111 1111"
        } ]
      } ],
      "subjectType": [ "Patient" ],
      "item": [ {
        "linkId": "60319",
        "prefix": "1500",
        "text": "Have you got enough medication to last until the surgery opens?",
        "type": "choice",
        "required": true,
        "repeats": false,
        "option": [ {
          "valueString": "yes, Selected: false"
        }, {
          "valueString": "not sure, Selected: false"
        }, {
          "valueString": "no, Selected: true"
        } ]
      } ]
    }
  }, {
    "fullUrl": "urn:uuid:d49a7463-80c8-48b1-a45e-389a545a5105",
    "resource": {
      "resourceType": "QuestionnaireResponse",
      "id": "d49a7463-80c8-48b1-a45e-389a545a5105",
      "identifier": {
        "value": "60319"
      },
      "questionnaire": {
        "reference": "urn:uuid:f5745788-1d7b-45fb-8320-f6d977c36e09"
      },
      "status": "completed",
      "subject": {
        "reference": "urn:uuid:0a34ae86-36f7-4215-ad89-22b1452cd94d"
      },
      "context": {
        "reference": "urn:uuid:09c22cd3-e943-467a-8cfe-9cec11e27230"
      },
      "authored": "2021-04-06T15:19:34+00:00"
    }
  }, {
    "fullUrl": "urn:uuid:f5745788-1d7b-45fb-8320-f6d977c36e09",
    "resource": {
      "resourceType": "Questionnaire",
      "id": "f5745788-1d7b-45fb-8320-f6d977c36e09",
      "identifier": [ {
        "value": "60319"
      } ],
      "version": "2021-04-06T15:19:34.083Z",
      "status": "active",
      "experimental": false,
      "date": "2021-04-06T15:19:34+00:00",
      "publisher": "User ID: 'HADFIELDR' User name: 'Ryan Hadfield' User skill set: 'T3'",
      "lastReviewDate": "2021-04-06",
      "contact": [ {
        "telecom": [ {
          "system": "phone",
          "value": "0111 111 1111"
        } ]
      } ],
      "subjectType": [ "Patient" ]
    }
  }, {
    "fullUrl": "urn:uuid:1f1fb9a8-d6c8-4da2-9acb-7f3864633890",
    "resource": {
      "resourceType": "QuestionnaireResponse",
      "id": "1f1fb9a8-d6c8-4da2-9acb-7f3864633890",
      "identifier": {
        "value": "60319"
      },
      "questionnaire": {
        "reference": "urn:uuid:9d6430f5-3326-423b-9ee9-6bfb1d3d652e"
      },
      "status": "completed",
      "subject": {
        "reference": "urn:uuid:0a34ae86-36f7-4215-ad89-22b1452cd94d"
      },
      "context": {
        "reference": "urn:uuid:09c22cd3-e943-467a-8cfe-9cec11e27230"
      },
      "authored": "2021-04-06T15:19:34+00:00",
      "item": [ {
        "linkId": "Tx224231",
        "text": "FROM WHAT YOU HAVE HEARD IS A CONSULTATION WITH A PRESCRIBER NEEDED?",
        "answer": [ {
          "valueString": "no"
        } ]
      } ]
    }
  }, {
    "fullUrl": "urn:uuid:9d6430f5-3326-423b-9ee9-6bfb1d3d652e",
    "resource": {
      "resourceType": "Questionnaire",
      "id": "9d6430f5-3326-423b-9ee9-6bfb1d3d652e",
      "identifier": [ {
        "value": "60319"
      } ],
      "version": "2021-04-06T15:19:34.083Z",
      "status": "active",
      "experimental": false,
      "date": "2021-04-06T15:19:34+00:00",
      "publisher": "User ID: 'HADFIELDR' User name: 'Ryan Hadfield' User skill set: 'T3'",
      "lastReviewDate": "2021-04-06",
      "contact": [ {
        "telecom": [ {
          "system": "phone",
          "value": "0111 111 1111"
        } ]
      } ],
      "subjectType": [ "Patient" ],
      "item": [ {
        "linkId": "60319",
        "prefix": "0",
        "text": "FROM WHAT YOU HAVE HEARD IS A CONSULTATION WITH A PRESCRIBER NEEDED?",
        "type": "choice",
        "required": true,
        "repeats": false,
        "option": [ {
          "valueString": "yes, Selected: false"
        }, {
          "valueString": "not sure, Selected: false"
        }, {
          "valueString": "no, Selected: true"
        } ]
      } ]
    }
  }, {
    "fullUrl": "urn:uuid:db745417-f23a-41d9-808b-536df3e65a4f",
    "resource": {
      "resourceType": "QuestionnaireResponse",
      "id": "db745417-f23a-41d9-808b-536df3e65a4f",
      "identifier": {
        "value": "60319"
      },
      "questionnaire": {
        "reference": "urn:uuid:f4ae6017-e4f9-4b63-9482-f37c573e6350"
      },
      "status": "completed",
      "subject": {
        "reference": "urn:uuid:0a34ae86-36f7-4215-ad89-22b1452cd94d"
      },
      "context": {
        "reference": "urn:uuid:09c22cd3-e943-467a-8cfe-9cec11e27230"
      },
      "authored": "2021-04-06T15:19:34+00:00",
      "item": [ {
        "linkId": "Tx222687",
        "text": "Have you got any of the medication available at the moment?",
        "answer": [ {
          "valueString": "no"
        } ]
      } ]
    }
  }, {
    "fullUrl": "urn:uuid:f4ae6017-e4f9-4b63-9482-f37c573e6350",
    "resource": {
      "resourceType": "Questionnaire",
      "id": "f4ae6017-e4f9-4b63-9482-f37c573e6350",
      "identifier": [ {
        "value": "60319"
      } ],
      "version": "2021-04-06T15:19:34.083Z",
      "status": "active",
      "experimental": false,
      "date": "2021-04-06T15:19:34+00:00",
      "publisher": "User ID: 'HADFIELDR' User name: 'Ryan Hadfield' User skill set: 'T3'",
      "lastReviewDate": "2021-04-06",
      "contact": [ {
        "telecom": [ {
          "system": "phone",
          "value": "0111 111 1111"
        } ]
      } ],
      "subjectType": [ "Patient" ],
      "item": [ {
        "linkId": "60319",
        "prefix": "200",
        "text": "Have you got any of the medication available at the moment?",
        "type": "choice",
        "required": true,
        "repeats": false,
        "option": [ {
          "valueString": "yes, Selected: false"
        }, {
          "valueString": "not sure, Selected: false"
        }, {
          "valueString": "no, Selected: true"
        } ]
      } ]
    }
  }, {
    "fullUrl": "urn:uuid:971af8bf-e8ae-43b1-a370-4a59d5496c19",
    "resource": {
      "resourceType": "QuestionnaireResponse",
      "id": "971af8bf-e8ae-43b1-a370-4a59d5496c19",
      "identifier": {
        "value": "60319"
      },
      "questionnaire": {
        "reference": "urn:uuid:279ab8e3-3245-4f74-83ac-adfb054c1064"
      },
      "status": "completed",
      "subject": {
        "reference": "urn:uuid:0a34ae86-36f7-4215-ad89-22b1452cd94d"
      },
      "context": {
        "reference": "urn:uuid:09c22cd3-e943-467a-8cfe-9cec11e27230"
      },
      "authored": "2021-04-06T15:19:34+00:00",
      "item": [ {
        "linkId": "Tx221367",
        "text": "When is the next dose due?",
        "answer": [ {
          "valueString": "over 12 hours time"
        } ]
      } ]
    }
  }, {
    "fullUrl": "urn:uuid:279ab8e3-3245-4f74-83ac-adfb054c1064",
    "resource": {
      "resourceType": "Questionnaire",
      "id": "279ab8e3-3245-4f74-83ac-adfb054c1064",
      "identifier": [ {
        "value": "60319"
      } ],
      "version": "2021-04-06T15:19:34.083Z",
      "status": "active",
      "experimental": false,
      "date": "2021-04-06T15:19:34+00:00",
      "publisher": "User ID: 'HADFIELDR' User name: 'Ryan Hadfield' User skill set: 'T3'",
      "lastReviewDate": "2021-04-06",
      "contact": [ {
        "telecom": [ {
          "system": "phone",
          "value": "0111 111 1111"
        } ]
      } ],
      "subjectType": [ "Patient" ],
      "item": [ {
        "linkId": "60319",
        "prefix": "100",
        "text": "When is the next dose due?",
        "type": "choice",
        "required": true,
        "repeats": false,
        "option": [ {
          "valueString": "within the next 2 hours, Selected: false"
        }, {
          "valueString": "within the next 6 hours, Selected: false"
        }, {
          "valueString": "within the next 12 hours, Selected: false"
        }, {
          "valueString": "over 12 hours time, Selected: true"
        }, {
          "valueString": "not sure, Selected: false"
        } ]
      } ]
    }
  }, {
    "fullUrl": "urn:uuid:ead93d8f-7a83-4dab-9e5e-4eb960ed7d4c",
    "resource": {
      "resourceType": "QuestionnaireResponse",
      "id": "ead93d8f-7a83-4dab-9e5e-4eb960ed7d4c",
      "identifier": {
        "value": "60319"
      },
      "questionnaire": {
        "reference": "urn:uuid:93df811c-42cc-4d5e-ad2e-a463716136e1"
      },
      "status": "completed",
      "subject": {
        "reference": "urn:uuid:0a34ae86-36f7-4215-ad89-22b1452cd94d"
      },
      "context": {
        "reference": "urn:uuid:09c22cd3-e943-467a-8cfe-9cec11e27230"
      },
      "authored": "2021-04-06T15:19:34+00:00",
      "item": [ {
        "linkId": "Tx223441",
        "text": "STRING:SDPCRepeatPrescription",
        "answer": [ {
          "valueString": "\"PC repeat prescription\""
        } ]
      } ]
    }
  }, {
    "fullUrl": "urn:uuid:93df811c-42cc-4d5e-ad2e-a463716136e1",
    "resource": {
      "resourceType": "Questionnaire",
      "id": "93df811c-42cc-4d5e-ad2e-a463716136e1",
      "identifier": [ {
        "value": "60319"
      } ],
      "version": "2021-04-06T15:19:34.083Z",
      "status": "active",
      "experimental": false,
      "date": "2021-04-06T15:19:34+00:00",
      "publisher": "User ID: 'HADFIELDR' User name: 'Ryan Hadfield' User skill set: 'T3'",
      "lastReviewDate": "2021-04-06",
      "contact": [ {
        "telecom": [ {
          "system": "phone",
          "value": "0111 111 1111"
        } ]
      } ],
      "subjectType": [ "Patient" ],
      "item": [ {
        "linkId": "60319",
        "prefix": "1100",
        "text": "STRING:SDPCRepeatPrescription",
        "type": "choice",
        "required": true,
        "repeats": false,
        "option": [ {
          "valueString": "\"PC repeat prescription\", Selected: true"
        } ]
      } ]
    }
  }, {
    "fullUrl": "urn:uuid:dcf00d33-c62b-47ec-a0f2-88fcb57c5fbb",
    "resource": {
      "resourceType": "QuestionnaireResponse",
      "id": "dcf00d33-c62b-47ec-a0f2-88fcb57c5fbb",
      "identifier": {
        "value": "60319"
      },
      "questionnaire": {
        "reference": "urn:uuid:1e83ba92-7759-4254-97d2-2f5076eb0349"
      },
      "status": "completed",
      "subject": {
        "reference": "urn:uuid:0a34ae86-36f7-4215-ad89-22b1452cd94d"
      },
      "context": {
        "reference": "urn:uuid:09c22cd3-e943-467a-8cfe-9cec11e27230"
      },
      "authored": "2021-04-06T15:19:34+00:00"
    }
  }, {
    "fullUrl": "urn:uuid:1e83ba92-7759-4254-97d2-2f5076eb0349",
    "resource": {
      "resourceType": "Questionnaire",
      "id": "1e83ba92-7759-4254-97d2-2f5076eb0349",
      "identifier": [ {
        "value": "60319"
      } ],
      "version": "2021-04-06T15:19:34.083Z",
      "status": "active",
      "experimental": false,
      "date": "2021-04-06T15:19:34+00:00",
      "publisher": "User ID: 'HADFIELDR' User name: 'Ryan Hadfield' User skill set: 'T3'",
      "lastReviewDate": "2021-04-06",
      "contact": [ {
        "telecom": [ {
          "system": "phone",
          "value": "0111 111 1111"
        } ]
      } ],
      "subjectType": [ "Patient" ]
    }
  }, {
    "fullUrl": "urn:uuid:e00babc2-ca9e-4518-a4c8-d01c93eff4b1",
    "resource": {
      "resourceType": "QuestionnaireResponse",
      "id": "e00babc2-ca9e-4518-a4c8-d01c93eff4b1",
      "identifier": {
        "value": "60319"
      },
      "questionnaire": {
        "reference": "urn:uuid:7c1376e6-ada0-4ea2-aaab-a0c4aa3723b0"
      },
      "status": "completed",
      "subject": {
        "reference": "urn:uuid:0a34ae86-36f7-4215-ad89-22b1452cd94d"
      },
      "context": {
        "reference": "urn:uuid:09c22cd3-e943-467a-8cfe-9cec11e27230"
      },
      "authored": "2021-04-06T15:19:34+00:00"
    }
  }, {
    "fullUrl": "urn:uuid:7c1376e6-ada0-4ea2-aaab-a0c4aa3723b0",
    "resource": {
      "resourceType": "Questionnaire",
      "id": "7c1376e6-ada0-4ea2-aaab-a0c4aa3723b0",
      "identifier": [ {
        "value": "60319"
      } ],
      "version": "2021-04-06T15:19:34.083Z",
      "status": "active",
      "experimental": false,
      "date": "2021-04-06T15:19:34+00:00",
      "publisher": "User ID: 'HADFIELDR' User name: 'Ryan Hadfield' User skill set: 'T3'",
      "lastReviewDate": "2021-04-06",
      "contact": [ {
        "telecom": [ {
          "system": "phone",
          "value": "0111 111 1111"
        } ]
      } ],
      "subjectType": [ "Patient" ]
    }
  }, {
    "fullUrl": "urn:uuid:42bb2bb4-093a-4f84-9447-5ad00811954f",
    "resource": {
      "resourceType": "PractitionerRole",
      "id": "42bb2bb4-093a-4f84-9447-5ad00811954f",
      "practitioner": {
        "reference": "urn:uuid:5ad13d97-89d9-4e1b-96b0-13029b2852fb"
      },
      "organization": {
        "reference": "urn:uuid:f36c312e-50d3-41a8-97f9-2085c2c50d94"
      },
      "code": [ {
        "coding": [ {
          "system": "2.16.840.1.113883.2.1.3.2.4.17.339",
          "code": "DOCTOR",
          "display": "Doctor"
        } ]
      } ]
    }
  }, {
    "fullUrl": "urn:uuid:f36c312e-50d3-41a8-97f9-2085c2c50d94",
    "resource": {
      "resourceType": "Organization",
      "id": "f36c312e-50d3-41a8-97f9-2085c2c50d94",
      "identifier": [ {
        "value": "RYE"
      } ],
      "name": "RepresentedOrg Name"
    }
  }, {
    "fullUrl": "urn:uuid:604689ae-d99c-4773-98e9-4c1d57b63be5",
    "resource": {
      "resourceType": "PractitionerRole",
      "id": "604689ae-d99c-4773-98e9-4c1d57b63be5",
      "practitioner": {
        "reference": "urn:uuid:bf0867e1-e4b0-4c37-956e-9660672f4408"
      },
      "organization": {
        "reference": "urn:uuid:7c1d3afb-4527-4984-9768-15cee485738e"
      },
      "code": [ {
        "coding": [ {
          "system": "2.16.840.1.113883.2.1.3.2.4.17.196",
          "code": "R0010",
          "display": "Medical Director"
        } ]
      } ]
    }
  }, {
    "fullUrl": "urn:uuid:7c1d3afb-4527-4984-9768-15cee485738e",
    "resource": {
      "resourceType": "Organization",
      "id": "7c1d3afb-4527-4984-9768-15cee485738e",
      "identifier": [ {
        "value": "RYE"
      } ],
      "name": "RepresentedOrgNameRYE"
    }
  }, {
    "fullUrl": "urn:uuid:2dc5d675-547a-48ee-91ff-d2d1c9d03bf1",
    "resource": {
      "resourceType": "RelatedPerson",
      "id": "2dc5d675-547a-48ee-91ff-d2d1c9d03bf1",
      "patient": {
        "reference": "urn:uuid:0a34ae86-36f7-4215-ad89-22b1452cd94d"
      },
      "relationship": {
        "coding": [ {
          "system": "http://hl7.org/fhir/v2/0131",
          "code": "C",
          "display": "Emergency Contact"
        } ]
      },
      "telecom": [ {
        "system": "phone",
        "value": "tel:000000000000"
      } ]
    }
  }, {
    "fullUrl": "urn:uuid:388f3661-2785-42a7-a875-c6d0f473fbb3",
    "resource": {
      "resourceType": "Device",
      "id": "388f3661-2785-42a7-a875-c6d0f473fbb3",
      "model": "111 Adaptor",
      "version": "0.11.0"
    }
  }, {
    "fullUrl": "urn:uuid:5770717b-845d-4031-bfa1-d798d36fb2d1",
    "resource": {
      "resourceType": "List",
      "id": "5770717b-845d-4031-bfa1-d798d36fb2d1",
      "status": "current",
      "mode": "working",
      "title": "111 Report List",
      "code": {
        "coding": [ {
          "system": "http://snomed.info/sct",
          "code": "225390008",
          "display": "Triage"
        } ]
      },
      "subject": {
        "reference": "urn:uuid:0a34ae86-36f7-4215-ad89-22b1452cd94d"
      },
      "encounter": {
        "reference": "urn:uuid:09c22cd3-e943-467a-8cfe-9cec11e27230"
      },
      "date": "2021-10-01T07:34:01+00:00",
      "source": {
        "reference": "urn:uuid:388f3661-2785-42a7-a875-c6d0f473fbb3"
      },
      "orderedBy": {
        "coding": [ {
          "system": "http://hl7.org/fhir/list-order",
          "code": "event-date",
          "display": "Sorted by Event Date"
        } ]
      },
      "entry": [ {
        "item": {
          "reference": "urn:uuid:c61cb0a1-899b-4f25-b177-dbb334eb90e2"
        }
      }, {
        "item": {
          "reference": "urn:uuid:4686070b-497e-413a-b5ce-3a8670515d30"
        }
      }, {
        "item": {
          "reference": "urn:uuid:5ad13d97-89d9-4e1b-96b0-13029b2852fb"
        }
      }, {
        "item": {
          "reference": "urn:uuid:dc5ac4e7-e055-4428-aba9-499c0e280fb5"
        }
      }, {
        "item": {
          "reference": "urn:uuid:bf0867e1-e4b0-4c37-956e-9660672f4408"
        }
      }, {
        "item": {
          "reference": "urn:uuid:2dc5d675-547a-48ee-91ff-d2d1c9d03bf1"
        }
      }, {
        "item": {
          "reference": "urn:uuid:f36c312e-50d3-41a8-97f9-2085c2c50d94"
        }
      }, {
        "item": {
          "reference": "urn:uuid:7c1d3afb-4527-4984-9768-15cee485738e"
        }
      }, {
        "item": {
          "reference": "urn:uuid:94dd9875-8ac9-4fdc-b21e-b9415f2a3684"
        }
      }, {
        "item": {
          "reference": "urn:uuid:294e3b7b-9b69-4101-8cdc-0b63af87ca02"
        }
      }, {
        "item": {
          "reference": "urn:uuid:6c3dad44-e7b6-4512-abde-d6b01a9dd246"
        }
      }, {
        "item": {
          "reference": "urn:uuid:f0ef5e79-001d-4506-8339-df6e1f232cf7"
        }
      }, {
        "item": {
          "reference": "urn:uuid:dcf00d33-c62b-47ec-a0f2-88fcb57c5fbb"
        }
      }, {
        "item": {
          "reference": "urn:uuid:60180f5a-26a2-48de-b01f-00e068c6d268"
        }
      }, {
        "item": {
          "reference": "urn:uuid:f6c16646-bd5f-41f6-80ee-127ee4b1bee9"
        }
      }, {
        "item": {
          "reference": "urn:uuid:d49a7463-80c8-48b1-a45e-389a545a5105"
        }
      }, {
        "item": {
          "reference": "urn:uuid:971af8bf-e8ae-43b1-a370-4a59d5496c19"
        }
      }, {
        "item": {
          "reference": "urn:uuid:8e9e11ad-4238-4219-a571-5a8c87b8f7af"
        }
      }, {
        "item": {
          "reference": "urn:uuid:f4ae6017-e4f9-4b63-9482-f37c573e6350"
        }
      }, {
        "item": {
          "reference": "urn:uuid:9d6430f5-3326-423b-9ee9-6bfb1d3d652e"
        }
      }, {
        "item": {
          "reference": "urn:uuid:99213fb0-4072-4131-bba6-ab690ee48df4"
        }
      }, {
        "item": {
          "reference": "urn:uuid:eae71211-a16e-4510-96bd-9dcb9e3251c5"
        }
      }, {
        "item": {
          "reference": "urn:uuid:d9f34a0b-1375-4dd0-b476-cce3421f073a"
        }
      }, {
        "item": {
          "reference": "urn:uuid:09812a60-af15-4a93-8869-e15221d42da5"
        }
      }, {
        "item": {
          "reference": "urn:uuid:7fa3263e-6a2a-4150-89cd-2eac1767a784"
        }
      }, {
        "item": {
          "reference": "urn:uuid:db745417-f23a-41d9-808b-536df3e65a4f"
        }
      }, {
        "item": {
          "reference": "urn:uuid:e00babc2-ca9e-4518-a4c8-d01c93eff4b1"
        }
      }, {
        "item": {
          "reference": "urn:uuid:a426f5e6-3018-4c8c-ad16-13a160080c69"
        }
      }, {
        "item": {
          "reference": "urn:uuid:6861cca2-7b73-4264-a591-06bfcd655c03"
        }
      }, {
        "item": {
          "reference": "urn:uuid:d3952813-cc7b-4cd7-a071-e433c22bef06"
        }
      }, {
        "item": {
          "reference": "urn:uuid:e1ad4c1e-8bd6-48cb-a507-534fbfe91c77"
        }
      }, {
        "item": {
          "reference": "urn:uuid:ead93d8f-7a83-4dab-9e5e-4eb960ed7d4c"
        }
      }, {
        "item": {
          "reference": "urn:uuid:93df811c-42cc-4d5e-ad2e-a463716136e1"
        }
      }, {
        "item": {
          "reference": "urn:uuid:f5745788-1d7b-45fb-8320-f6d977c36e09"
        }
      }, {
        "item": {
          "reference": "urn:uuid:7c1376e6-ada0-4ea2-aaab-a0c4aa3723b0"
        }
      }, {
        "item": {
          "reference": "urn:uuid:279ab8e3-3245-4f74-83ac-adfb054c1064"
        }
      }, {
        "item": {
          "reference": "urn:uuid:1e83ba92-7759-4254-97d2-2f5076eb0349"
        }
      }, {
        "item": {
          "reference": "urn:uuid:1f1fb9a8-d6c8-4da2-9acb-7f3864633890"
        }
      }, {
        "item": {
          "reference": "urn:uuid:050e3977-dd44-4afc-be9a-4d5147e7c11e"
        }
      }, {
        "item": {
          "reference": "urn:uuid:7ded755d-2b7f-41ac-8038-28a726c82843"
        }
      } ]
    }
  } ]
}