{
  "resourceType": "Bundle",
  "identifier": {
    "type": {
      "text": "ClinicalDocument VersionNumber"
    },
    "value": "1"
  },
  "type": "message",
  "entry": [ {
    "fullUrl": "urn:uuid:05040617-33BA-4344-AA59-281CF2FE63CA",
    "resource": {
      "resourceType": "MessageHeader",
      "id": "05040617-33BA-4344-AA59-281CF2FE63CA",
      "event": {
        "system": "https://fhir.nhs.uk/STU3/CodeSystem/EventType-1",
        "code": "referral-1",
        "display": "Referral"
      },
      "destination": [ {
        "endpoint": "urn:nhs-uk:addressing:ods:FHR04RPX:DOSServiceID:2000038667"
      } ],
      "timestamp": "2021-04-06T15:19:34.000+00:00",
      "source": {
        "name": "NHS 111 Adaptor",
        "endpoint": "http://localhost:8080/report"
      },
      "reason": {
        "coding": [ {
          "system": "urn:nhs-itk:ns:201005:interaction",
          "code": "urn:nhs-itk:interaction:primaryOutofHourRecipientNHS111CDADocument-v2-0"
        } ]
      }
    }
  }, {
    "fullUrl": "urn:uuid:65cfd802-31e8-4454-9d9c-0b63dd8ee117",
    "resource": {
      "resourceType": "Encounter",
      "id": "65cfd802-31e8-4454-9d9c-0b63dd8ee117",
      "identifier": [ {
        "system": "2.16.840.1.113883.2.1.3.2.4.18.34",
        "value": "AdastraCaseGUID34"
      }, {
        "system": "2.16.840.1.113883.2.1.3.2.4.18.35",
        "value": "AdastraCaseID35"
      }, {
        "system": "2.16.840.1.113883.2.1.3.2.4.18.49",
        "value": "AdastraCaseGUID49"
      } ],
      "status": "finished",
      "type": [ {
        "text": "111 Encounter Referral"
      } ],
      "subject": {
        "reference": "urn:uuid:20a56f46-8395-458b-8d6c-772c633b23f8"
      },
      "participant": [ {
        "type": [ {
          "coding": [ {
            "system": "http://hl7.org/fhir/ValueSet/encounter-participant-type",
            "code": "PPRF",
            "display": "Author"
          } ]
        } ],
        "individual": {
          "reference": "urn:uuid:89ff2ce8-6b28-45b2-8fa3-3c043d203941"
        }
      }, {
        "type": [ {
          "text": "Informant"
        } ],
        "individual": {
          "reference": "urn:uuid:3a07f724-845e-4bbd-9f50-de8674962d43"
        }
      }, {
        "type": [ {
          "coding": [ {
            "system": "http://hl7.org/fhir/ValueSet/encounter-participant-type",
            "code": "ATND",
            "display": "Responsible Party"
          } ]
        } ],
        "individual": {
          "reference": "urn:uuid:25bd0d0a-c592-4231-8bfb-00bd133b1965"
        }
      } ],
      "period": {
        "start": "2021-04-06T15:19:34+00:00"
      },
      "location": [ {
        "location": {
          "reference": "urn:uuid:26b28d7f-6701-417d-b875-c1df3d629857"
        },
        "status": "completed"
      } ],
      "serviceProvider": {
        "reference": "urn:uuid:c845f258-e923-46a7-8c0c-4fa3cd03bb4f"
      }
    }
  }, {
    "fullUrl": "urn:uuid:c845f258-e923-46a7-8c0c-4fa3cd03bb4f",
    "resource": {
      "resourceType": "Organization",
      "id": "c845f258-e923-46a7-8c0c-4fa3cd03bb4f",
      "active": true,
      "type": [ {
        "text": "CST"
      } ],
      "name": "CustodianName"
    }
  }, {
    "fullUrl": "urn:uuid:89ff2ce8-6b28-45b2-8fa3-3c043d203941",
    "resource": {
      "resourceType": "Practitioner",
      "id": "89ff2ce8-6b28-45b2-8fa3-3c043d203941",
      "active": true,
      "name": [ {
        "use": "official",
        "family": "AuthorAssignedPerson FamilyName",
        "given": [ "AuthorAssignedPerson GivenName" ]
      } ]
    }
  }, {
    "fullUrl": "urn:uuid:3a07f724-845e-4bbd-9f50-de8674962d43",
    "resource": {
      "resourceType": "RelatedPerson",
      "id": "3a07f724-845e-4bbd-9f50-de8674962d43",
      "active": true,
      "patient": {
        "reference": "urn:uuid:20a56f46-8395-458b-8d6c-772c633b23f8"
      },
      "relationship": {
        "coding": [ {
          "system": "2.16.840.1.113883.2.1.3.2.4.16.45",
          "code": "16",
          "display": "Relative"
        } ]
      },
      "name": [ {
        "text": "RelatedPerson Name"
      } ],
      "telecom": [ {
        "system": "phone",
        "value": "tel:01111111111",
        "use": "home"
      } ],
      "gender": "unknown"
    }
  }, {
    "fullUrl": "urn:uuid:25bd0d0a-c592-4231-8bfb-00bd133b1965",
    "resource": {
      "resourceType": "Practitioner",
      "id": "25bd0d0a-c592-4231-8bfb-00bd133b1965",
      "active": true,
      "name": [ {
        "use": "official",
        "family": "ResponsablePartyMD FamilyName",
        "given": [ "ResponsablePartyMD GivenName" ]
      } ]
    }
  }, {
    "fullUrl": "urn:uuid:26b28d7f-6701-417d-b875-c1df3d629857",
    "resource": {
      "resourceType": "Location",
      "id": "26b28d7f-6701-417d-b875-c1df3d629857",
      "name": "Incident Location",
      "address": {
        "type": "physical",
        "line": [ "HealthCareFacility AddressLine1", "HealthCareFacility AddressLine2", "HealthCareFacility AddressLine3", "HealthCareFacility AddressLine4", "HealthCareFacility AddressLine5" ],
        "postalCode": "LOH25 4NS"
      }
    }
  }, {
    "fullUrl": "urn:uuid:20a56f46-8395-458b-8d6c-772c633b23f8",
    "resource": {
      "resourceType": "Patient",
      "id": "20a56f46-8395-458b-8d6c-772c633b23f8",
      "active": true,
      "name": [ {
        "use": "official",
        "family": "Patient Family Name",
        "given": [ "Patient Given Name" ]
      } ],
      "telecom": [ {
        "system": "phone",
        "value": "tel:000000000000",
        "use": "home"
      }, {
        "system": "phone",
        "value": "tel:000000000000"
      } ],
      "gender": "other",
      "birthDate": "1990-02-02",
      "address": [ {
        "use": "home",
        "line": [ "Home Address Line 1", "Home Address Line 2", "Home Address Line 3", "Home Address Line 4", "Home Address Line 5" ],
        "postalCode": "HA25 4NS"
      }, {
        "type": "physical",
        "line": [ "Home Address Line 1", "Home Address Line 2", "Home Address Line 3", "Home Address Line 4", "Home Address Line 5" ],
        "postalCode": "PH25 4NS"
      } ]
    }
  }, {
    "fullUrl": "urn:uuid:f01aad7c-f1d1-41c3-a36c-c2e65b9bf7a6",
    "resource": {
      "resourceType": "HealthcareService",
      "id": "f01aad7c-f1d1-41c3-a36c-c2e65b9bf7a6",
      "active": true,
      "providedBy": {
        "reference": "urn:uuid:fe870079-cd6c-44df-aec2-b031f30fb474"
      },
      "location": [ {
        "reference": "urn:uuid:382a5673-8546-45ab-ae6a-d12b54cd4abe"
      } ],
      "name": "InformationRecipient IntendedRecipient Name FHR0"
    }
  }, {
    "fullUrl": "urn:uuid:382a5673-8546-45ab-ae6a-d12b54cd4abe",
    "resource": {
      "resourceType": "Location",
      "id": "382a5673-8546-45ab-ae6a-d12b54cd4abe",
      "managingOrganization": {
        "reference": "urn:uuid:fe870079-cd6c-44df-aec2-b031f30fb474"
      }
    }
  }, {
    "fullUrl": "urn:uuid:fe870079-cd6c-44df-aec2-b031f30fb474",
    "resource": {
      "resourceType": "Organization",
      "id": "fe870079-cd6c-44df-aec2-b031f30fb474",
      "identifier": [ {
        "value": "FHR04RPX"
      } ],
      "type": [ {
        "coding": [ {
          "code": "PRCP",
          "display": "InformationRecipient IntendedRecipient Name FHR0"
        } ]
      } ],
      "name": "InformationRecipient IntendedRecipient Name FHR0"
    }
  }, {
    "fullUrl": "urn:uuid:8c9bc136-97f5-44b1-95ad-3c7754aa4309",
    "resource": {
      "resourceType": "ReferralRequest",
      "id": "8c9bc136-97f5-44b1-95ad-3c7754aa4309",
      "status": "active",
      "intent": "plan",
      "priority": "routine",
      "subject": {
        "reference": "urn:uuid:20a56f46-8395-458b-8d6c-772c633b23f8"
      },
      "context": {
        "reference": "urn:uuid:65cfd802-31e8-4454-9d9c-0b63dd8ee117"
      },
      "occurrencePeriod": {
        "start": "2021-10-01T07:34:03+00:00",
        "end": "2021-10-01T08:34:03+00:00"
      },
      "authoredOn": "2021-04-06T15:19:29+00:00",
      "requester": {
        "agent": {
          "reference": "urn:uuid:2d3fa6b3-88a2-4b7d-a388-c78055103ee8"
        },
        "onBehalfOf": {
          "reference": "urn:uuid:c845f258-e923-46a7-8c0c-4fa3cd03bb4f"
        }
      },
      "recipient": [ {
        "reference": "urn:uuid:f01aad7c-f1d1-41c3-a36c-c2e65b9bf7a6"
      } ],
      "reasonReference": [ {
        "reference": "urn:uuid:8960eae3-c920-423d-bdae-85d999dfbc81"
      } ],
      "supportingInfo": [ {
        "reference": "urn:uuid:2abbdbc5-cf2b-4469-999f-aa6625c7e822"
      } ]
    }
  }, {
    "fullUrl": "urn:uuid:2abbdbc5-cf2b-4469-999f-aa6625c7e822",
    "resource": {
      "resourceType": "ProcedureRequest",
      "id": "2abbdbc5-cf2b-4469-999f-aa6625c7e822",
      "status": "active",
      "intent": "plan",
      "priority": "routine",
      "doNotPerform": false,
      "code": {
        "coding": [ {
          "system": "2.16.840.1.113883.2.1.3.2.4.17.325",
          "code": "DispoCodeDx87",
          "display": "DispoName - Repeat Prescription required within 24 hours"
        } ]
      },
      "subject": {
        "reference": "urn:uuid:20a56f46-8395-458b-8d6c-772c633b23f8"
      },
      "occurrencePeriod": {
        "start": "2021-10-01T07:34:03+00:00",
        "end": "2021-10-01T08:34:03+00:00"
      },
      "reasonReference": [ {
        "reference": "urn:uuid:8960eae3-c920-423d-bdae-85d999dfbc81"
      } ]
    }
  }, {
    "fullUrl": "urn:uuid:6243d5c4-82f3-4cf2-9e5e-6ee9c8b3ff73",
    "resource": {
      "resourceType": "Composition",
      "id": "6243d5c4-82f3-4cf2-9e5e-6ee9c8b3ff73",
      "identifier": {
        "use": "usual",
        "value": "E2DF04F7-95CA-40AD-808D-797C0A89E39C"
      },
      "status": "final",
      "type": {
        "coding": [ {
          "system": "http://snomed.info/sct",
          "code": "371531000",
          "display": "Report of clinical encounter (record artifact)"
        } ]
      },
      "subject": {
        "reference": "urn:uuid:20a56f46-8395-458b-8d6c-772c633b23f8"
      },
      "encounter": {
        "reference": "urn:uuid:65cfd802-31e8-4454-9d9c-0b63dd8ee117"
      },
      "date": "2021-10-01T07:34:03+00:00",
      "author": [ {
        "reference": "urn:uuid:89ff2ce8-6b28-45b2-8fa3-3c043d203941"
      } ],
      "title": "111 Report",
      "confidentiality": "N",
      "section": [ {
        "section": [ {
          "title": "ComponentTitle - Patient's Reported Condition",
          "text": {
            "status": "generated",
            "div": "<div xmlns=\"http://www.w3.org/1999/xhtml\">&lt;content&gt;ComponentText - Pharmacy ITK Testing&lt;/content&gt;\n                                                    &lt;br/&gt;</div>"
          }
        }, {
          "title": "ComponentTitle - Pathways Disposition",
          "text": {
            "status": "generated",
            "div": "<div xmlns=\"http://www.w3.org/1999/xhtml\">ComponentText - Repeat Prescription required within 24 hours (Dx87)                                         &lt;br/&gt;\n                                                    &lt;br/&gt;                                         Selected service: Springvale, Fraser Road, Kings Worthy, Winchester&lt;br/&gt;</div>"
          }
        }, {
          "title": "ComponentTitle - Consultation Summary",
          "text": {
            "status": "generated",
            "div": "<div xmlns=\"http://www.w3.org/1999/xhtml\">ComponentText - Prescription request&lt;br/&gt;Not enough medication until surgery opens&lt;br/&gt;No medication available&lt;br/&gt;Next dose due in over 12 hours time&lt;br/&gt;</div>"
          }
        }, {
          "title": "ComponentTitle - Pathways Assessment",
          "text": {
            "status": "generated",
            "div": "<div xmlns=\"http://www.w3.org/1999/xhtml\">ComponentText - Reason for call menu - continued to next list.&lt;br/&gt;A prescription request was the main reason for the contact.&lt;br/&gt;The main reason for the contact was not a new or worsening illness.&lt;br/&gt;The individual did not have enough medication to last until the surgery next opened.&lt;br/&gt;The medication was suitable for repeat prescribing without further consultation.&lt;br/&gt;The individual had no medication available.&lt;br/&gt;The next dose was due in over 12 hours time.&lt;br/&gt;Instructions given were: The individual needs a repeat prescription.&lt;br/&gt;Directory of Services referral: Springvale, Fraser Road, Kings Worthy, Winchester&lt;br/&gt;</div>"
          }
        }, {
          "title": "ComponentTitle - Advice Given",
          "text": {
            "status": "generated",
            "div": "<div xmlns=\"http://www.w3.org/1999/xhtml\">ComponentText - I will arrange for a clinician or pharmacist to speak to the individual.&lt;br/&gt;IF THE RECOMMENDED TIMEFRAME FALLS OUTSIDE OPENING HOURS: I will arrange for a clinician to speak to the individual.&lt;br/&gt;\n                                                    &lt;br/&gt;</div>"
          }
        }, {
          "title": "ComponentTitle - Information And Advice Given"
        }, {
          "title": "ComponentTitle - Disposition",
          "text": {
            "status": "generated",
            "div": "<div xmlns=\"http://www.w3.org/1999/xhtml\">&lt;content&gt;ComponentText - Repeat Prescription required within 24 hours&lt;br/&gt;\n                                                    &lt;/content&gt;\n                                                    &lt;br/&gt;\n                                                    &lt;br/&gt;</div>"
          }
        } ]
      }, {
        "title": "CarePlan",
        "entry": [ {
          "reference": "urn:uuid:7a70c3bf-2441-46e1-ac51-6eed26ac771e"
        } ]
      }, {
        "title": "ReferralRequest",
        "entry": [ {
          "reference": "urn:uuid:8c9bc136-97f5-44b1-95ad-3c7754aa4309"
        } ]
      }, {
        "title": "QuestionnaireResponse",
        "entry": [ {
          "reference": "urn:uuid:a608f44b-8628-48cc-920e-1baafdc31b17"
        } ]
      }, {
        "title": "QuestionnaireResponse",
        "entry": [ {
          "reference": "urn:uuid:5d98b685-ccd4-4d63-adbb-b2a826c1bacf"
        } ]
      }, {
        "title": "QuestionnaireResponse",
        "entry": [ {
          "reference": "urn:uuid:7f747b35-ee74-4ec1-9aa6-43e1a2f6c884"
        } ]
      }, {
        "title": "QuestionnaireResponse",
        "entry": [ {
          "reference": "urn:uuid:4ef386dc-cd18-4f11-bec5-bab6f9ff8196"
        } ]
      }, {
        "title": "QuestionnaireResponse",
        "entry": [ {
          "reference": "urn:uuid:51ff016c-7fc3-42e3-b496-031e37a659f8"
        } ]
      }, {
        "title": "QuestionnaireResponse",
        "entry": [ {
          "reference": "urn:uuid:5d99f17e-02c5-41d4-a231-6c2592a2d4c9"
        } ]
      }, {
        "title": "QuestionnaireResponse",
        "entry": [ {
          "reference": "urn:uuid:9023cb00-d16c-4bb0-85dd-8ff1b69856e3"
        } ]
      }, {
        "title": "QuestionnaireResponse",
        "entry": [ {
          "reference": "urn:uuid:1b787656-6fac-4520-a3d9-f8aaa0c68bf2"
        } ]
      }, {
        "title": "QuestionnaireResponse",
        "entry": [ {
          "reference": "urn:uuid:679f96f1-1331-4fcb-9f97-7fcf19a8216c"
        } ]
      }, {
        "title": "QuestionnaireResponse",
        "entry": [ {
          "reference": "urn:uuid:c1ca767d-4bb5-4f1c-b505-7dcc024abdca"
        } ]
      }, {
        "title": "QuestionnaireResponse",
        "entry": [ {
          "reference": "urn:uuid:6faa551a-4cf9-4edd-afe4-c761eb5857a4"
        } ]
      }, {
        "title": "QuestionnaireResponse",
        "entry": [ {
          "reference": "urn:uuid:605584ab-8ee1-46b1-8c97-e863384e246d"
        } ]
      }, {
        "title": "QuestionnaireResponse",
        "entry": [ {
          "reference": "urn:uuid:a2b39cec-1c3e-41b7-bcff-57b81b915a5a"
        } ]
      }, {
        "title": "QuestionnaireResponse",
        "entry": [ {
          "reference": "urn:uuid:2e0aa1a4-dced-455d-a9f6-efbad69092f9"
        } ]
      }, {
        "title": "QuestionnaireResponse",
        "entry": [ {
          "reference": "urn:uuid:85f172db-289c-4cd7-a736-faf4e29c3a81"
        } ]
      } ]
    }
  }, {
    "fullUrl": "urn:uuid:7a70c3bf-2441-46e1-ac51-6eed26ac771e",
    "resource": {
      "resourceType": "CarePlan",
      "id": "7a70c3bf-2441-46e1-ac51-6eed26ac771e",
      "status": "completed",
      "intent": "plan",
      "title": "ComponentTitle - Information And Advice Given",
      "subject": {
        "reference": "urn:uuid:20a56f46-8395-458b-8d6c-772c633b23f8"
      },
      "context": {
        "reference": "urn:uuid:65cfd802-31e8-4454-9d9c-0b63dd8ee117"
      },
      "period": {
        "start": "2021-04-06T15:19:34+00:00"
      },
      "addresses": [ {
        "reference": "urn:uuid:8960eae3-c920-423d-bdae-85d999dfbc81"
      } ]
    }
  }, {
    "fullUrl": "urn:uuid:30dd447b-b51e-4653-8224-85c4d8e45514",
    "resource": {
      "resourceType": "Consent",
      "id": "30dd447b-b51e-4653-8224-85c4d8e45514",
      "identifier": {
        "use": "usual",
        "value": "E2DF04F7-95CA-40AD-808D-797C0A89E39C"
      },
      "status": "active",
      "patient": {
        "reference": "urn:uuid:20a56f46-8395-458b-8d6c-772c633b23f8"
      },
      "period": {
        "start": "2021-04-06T15:19:34+00:00"
      },
      "consentingParty": [ {
        "reference": "urn:uuid:20a56f46-8395-458b-8d6c-772c633b23f8"
      } ],
      "action": [ {
        "coding": [ {
          "system": "http://snomed.info/sct",
          "code": "425691002",
          "display": "Consent given for electronic record sharing"
        } ],
        "text": "Consent given for electronic record sharing"
      } ],
      "organization": [ {
        "reference": "urn:uuid:c845f258-e923-46a7-8c0c-4fa3cd03bb4f"
      } ],
      "policyRule": "http://hl7.org/fhir/ConsentPolicy/opt-out",
      "data": [ {
        "meaning": "related",
        "reference": {
          "reference": "urn:uuid:65cfd802-31e8-4454-9d9c-0b63dd8ee117"
        }
      } ]
    }
  }, {
    "fullUrl": "urn:uuid:8960eae3-c920-423d-bdae-85d999dfbc81",
    "resource": {
      "resourceType": "Condition",
      "id": "8960eae3-c920-423d-bdae-85d999dfbc81",
      "clinicalStatus": "active",
      "verificationStatus": "unknown",
      "subject": {
        "reference": "urn:uuid:20a56f46-8395-458b-8d6c-772c633b23f8"
      },
      "context": {
        "reference": "urn:uuid:65cfd802-31e8-4454-9d9c-0b63dd8ee117"
      },
      "evidence": [ {
        "detail": [ {
          "reference": "urn:uuid:a608f44b-8628-48cc-920e-1baafdc31b17"
        } ]
      }, {
        "detail": [ {
          "reference": "urn:uuid:5d98b685-ccd4-4d63-adbb-b2a826c1bacf"
        } ]
      }, {
        "detail": [ {
          "reference": "urn:uuid:7f747b35-ee74-4ec1-9aa6-43e1a2f6c884"
        } ]
      }, {
        "detail": [ {
          "reference": "urn:uuid:4ef386dc-cd18-4f11-bec5-bab6f9ff8196"
        } ]
      }, {
        "detail": [ {
          "reference": "urn:uuid:51ff016c-7fc3-42e3-b496-031e37a659f8"
        } ]
      }, {
        "detail": [ {
          "reference": "urn:uuid:5d99f17e-02c5-41d4-a231-6c2592a2d4c9"
        } ]
      }, {
        "detail": [ {
          "reference": "urn:uuid:9023cb00-d16c-4bb0-85dd-8ff1b69856e3"
        } ]
      }, {
        "detail": [ {
          "reference": "urn:uuid:1b787656-6fac-4520-a3d9-f8aaa0c68bf2"
        } ]
      }, {
        "detail": [ {
          "reference": "urn:uuid:679f96f1-1331-4fcb-9f97-7fcf19a8216c"
        } ]
      }, {
        "detail": [ {
          "reference": "urn:uuid:c1ca767d-4bb5-4f1c-b505-7dcc024abdca"
        } ]
      }, {
        "detail": [ {
          "reference": "urn:uuid:6faa551a-4cf9-4edd-afe4-c761eb5857a4"
        } ]
      }, {
        "detail": [ {
          "reference": "urn:uuid:605584ab-8ee1-46b1-8c97-e863384e246d"
        } ]
      }, {
        "detail": [ {
          "reference": "urn:uuid:a2b39cec-1c3e-41b7-bcff-57b81b915a5a"
        } ]
      }, {
        "detail": [ {
          "reference": "urn:uuid:2e0aa1a4-dced-455d-a9f6-efbad69092f9"
        } ]
      }, {
        "detail": [ {
          "reference": "urn:uuid:85f172db-289c-4cd7-a736-faf4e29c3a81"
        } ]
      } ]
    }
  }, {
    "fullUrl": "urn:uuid:a608f44b-8628-48cc-920e-1baafdc31b17",
    "resource": {
      "resourceType": "QuestionnaireResponse",
      "id": "a608f44b-8628-48cc-920e-1baafdc31b17",
      "identifier": {
        "value": "60319"
      },
      "questionnaire": {
        "reference": "urn:uuid:d658f66c-c6b0-42b6-bca7-0caa17a4e9be"
      },
      "status": "completed",
      "subject": {
        "reference": "urn:uuid:20a56f46-8395-458b-8d6c-772c633b23f8"
      },
      "context": {
        "reference": "urn:uuid:65cfd802-31e8-4454-9d9c-0b63dd8ee117"
      },
      "authored": "2021-04-06T15:19:34+00:00",
      "item": [ {
        "linkId": "Tx220109",
        "text": "What is the reason for the contact?",
        "answer": [ {
          "valueString": "more"
        } ]
      } ]
    }
  }, {
    "fullUrl": "urn:uuid:d658f66c-c6b0-42b6-bca7-0caa17a4e9be",
    "resource": {
      "resourceType": "Questionnaire",
      "id": "d658f66c-c6b0-42b6-bca7-0caa17a4e9be",
      "identifier": [ {
        "value": "60319"
      } ],
      "version": "2021-04-06T15:19:34.083Z",
      "status": "active",
      "experimental": false,
      "date": "2021-04-06T15:19:34+00:00",
      "publisher": "User ID: 'HADFIELDR' User name: 'Ryan Hadfield' User skill set: 'T3'",
      "lastReviewDate": "2021-04-06",
      "contact": [ {
        "telecom": [ {
          "system": "phone",
          "value": "0111 111 1111"
        } ]
      } ],
      "subjectType": [ "Patient" ],
      "item": [ {
        "linkId": "60319",
        "prefix": "5",
        "text": "What is the reason for the contact?",
        "type": "choice",
        "required": true,
        "repeats": false,
        "option": [ {
          "valueString": "an injury or other health problem, Selected: false"
        }, {
          "valueString": "a need to access another healthcare service, Selected: false"
        }, {
          "valueString": "a healthcare professional requesting contact with another clinician, Selected: false"
        }, {
          "valueString": "a report of results or tests, Selected: false"
        }, {
          "valueString": "more, Selected: true"
        } ]
      } ]
    }
  }, {
    "fullUrl": "urn:uuid:5d98b685-ccd4-4d63-adbb-b2a826c1bacf",
    "resource": {
      "resourceType": "QuestionnaireResponse",
      "id": "5d98b685-ccd4-4d63-adbb-b2a826c1bacf",
      "identifier": {
        "value": "60319"
      },
      "questionnaire": {
        "reference": "urn:uuid:f9c7eca4-a169-44a1-b575-0ea75439d530"
      },
      "status": "completed",
      "subject": {
        "reference": "urn:uuid:20a56f46-8395-458b-8d6c-772c633b23f8"
      },
      "context": {
        "reference": "urn:uuid:65cfd802-31e8-4454-9d9c-0b63dd8ee117"
      },
      "authored": "2021-04-06T15:19:34+00:00",
      "item": [ {
        "linkId": "Tx221793",
        "text": "STRING:to'Social&information'-further'Callreason'menu",
        "answer": [ {
          "valueString": "\"present\""
        } ]
      } ]
    }
  }, {
    "fullUrl": "urn:uuid:f9c7eca4-a169-44a1-b575-0ea75439d530",
    "resource": {
      "resourceType": "Questionnaire",
      "id": "f9c7eca4-a169-44a1-b575-0ea75439d530",
      "identifier": [ {
        "value": "60319"
      } ],
      "version": "2021-04-06T15:19:34.083Z",
      "status": "active",
      "experimental": false,
      "date": "2021-04-06T15:19:34+00:00",
      "publisher": "User ID: 'HADFIELDR' User name: 'Ryan Hadfield' User skill set: 'T3'",
      "lastReviewDate": "2021-04-06",
      "contact": [ {
        "telecom": [ {
          "system": "phone",
          "value": "0111 111 1111"
        } ]
      } ],
      "subjectType": [ "Patient" ],
      "item": [ {
        "linkId": "60319",
        "prefix": "600",
        "text": "STRING:to'Social&information'-further'Callreason'menu",
        "type": "choice",
        "required": true,
        "repeats": false,
        "option": [ {
          "valueString": "\"present\", Selected: true"
        } ]
      } ]
    }
  }, {
    "fullUrl": "urn:uuid:7f747b35-ee74-4ec1-9aa6-43e1a2f6c884",
    "resource": {
      "resourceType": "QuestionnaireResponse",
      "id": "7f747b35-ee74-4ec1-9aa6-43e1a2f6c884",
      "identifier": {
        "value": "60319"
      },
      "questionnaire": {
        "reference": "urn:uuid:a9e24f1a-5fb8-42f0-8062-9707381f12f9"
      },
      "status": "completed",
      "subject": {
        "reference": "urn:uuid:20a56f46-8395-458b-8d6c-772c633b23f8"
      },
      "context": {
        "reference": "urn:uuid:65cfd802-31e8-4454-9d9c-0b63dd8ee117"
      },
      "authored": "2021-04-06T15:19:34+00:00"
    }
  }, {
    "fullUrl": "urn:uuid:a9e24f1a-5fb8-42f0-8062-9707381f12f9",
    "resource": {
      "resourceType": "Questionnaire",
      "id": "a9e24f1a-5fb8-42f0-8062-9707381f12f9",
      "identifier": [ {
        "value": "60319"
      } ],
      "version": "2021-04-06T15:19:34.083Z",
      "status": "active",
      "experimental": false,
      "date": "2021-04-06T15:19:34+00:00",
      "publisher": "User ID: 'HADFIELDR' User name: 'Ryan Hadfield' User skill set: 'T3'",
      "lastReviewDate": "2021-04-06",
      "contact": [ {
        "telecom": [ {
          "system": "phone",
          "value": "0111 111 1111"
        } ]
      } ],
      "subjectType": [ "Patient" ]
    }
  }, {
    "fullUrl": "urn:uuid:4ef386dc-cd18-4f11-bec5-bab6f9ff8196",
    "resource": {
      "resourceType": "QuestionnaireResponse",
      "id": "4ef386dc-cd18-4f11-bec5-bab6f9ff8196",
      "identifier": {
        "value": "60319"
      },
      "questionnaire": {
        "reference": "urn:uuid:2ff2999a-ec3b-43c4-ab56-3e5c416a015b"
      },
      "status": "completed",
      "subject": {
        "reference": "urn:uuid:20a56f46-8395-458b-8d6c-772c633b23f8"
      },
      "context": {
        "reference": "urn:uuid:65cfd802-31e8-4454-9d9c-0b63dd8ee117"
      },
      "authored": "2021-04-06T15:19:34+00:00",
      "item": [ {
        "linkId": "Tx221804",
        "text": "STRING:transfertofurthermenuquestionestablishedinEntryFlow",
        "answer": [ {
          "valueString": "\"present\""
        } ]
      } ]
    }
  }, {
    "fullUrl": "urn:uuid:2ff2999a-ec3b-43c4-ab56-3e5c416a015b",
    "resource": {
      "resourceType": "Questionnaire",
      "id": "2ff2999a-ec3b-43c4-ab56-3e5c416a015b",
      "identifier": [ {
        "value": "60319"
      } ],
      "version": "2021-04-06T15:19:34.083Z",
      "status": "active",
      "experimental": false,
      "date": "2021-04-06T15:19:34+00:00",
      "publisher": "User ID: 'HADFIELDR' User name: 'Ryan Hadfield' User skill set: 'T3'",
      "lastReviewDate": "2021-04-06",
      "contact": [ {
        "telecom": [ {
          "system": "phone",
          "value": "0111 111 1111"
        } ]
      } ],
      "subjectType": [ "Patient" ],
      "item": [ {
        "linkId": "60319",
        "prefix": "41",
        "text": "STRING:transfertofurthermenuquestionestablishedinEntryFlow",
        "type": "choice",
        "required": true,
        "repeats": false,
        "option": [ {
          "valueString": "\"present\", Selected: true"
        } ]
      } ]
    }
  }, {
    "fullUrl": "urn:uuid:51ff016c-7fc3-42e3-b496-031e37a659f8",
    "resource": {
      "resourceType": "QuestionnaireResponse",
      "id": "51ff016c-7fc3-42e3-b496-031e37a659f8",
      "identifier": {
        "value": "60319"
      },
      "questionnaire": {
        "reference": "urn:uuid:bda24f61-648e-4419-a6cf-92ede80cb020"
      },
      "status": "completed",
      "subject": {
        "reference": "urn:uuid:20a56f46-8395-458b-8d6c-772c633b23f8"
      },
      "context": {
        "reference": "urn:uuid:65cfd802-31e8-4454-9d9c-0b63dd8ee117"
      },
      "authored": "2021-04-06T15:19:34+00:00",
      "item": [ {
        "linkId": "Tx224998",
        "text": "SYSTEM_COVIDLEVEL2",
        "answer": [ {
          "valueString": "==\"covidlevel2\""
        } ]
      } ]
    }
  }, {
    "fullUrl": "urn:uuid:bda24f61-648e-4419-a6cf-92ede80cb020",
    "resource": {
      "resourceType": "Questionnaire",
      "id": "bda24f61-648e-4419-a6cf-92ede80cb020",
      "identifier": [ {
        "value": "60319"
      } ],
      "version": "2021-04-06T15:19:34.083Z",
      "status": "active",
      "experimental": false,
      "date": "2021-04-06T15:19:34+00:00",
      "publisher": "User ID: 'HADFIELDR' User name: 'Ryan Hadfield' User skill set: 'T3'",
      "lastReviewDate": "2021-04-06",
      "contact": [ {
        "telecom": [ {
          "system": "phone",
          "value": "0111 111 1111"
        } ]
      } ],
      "subjectType": [ "Patient" ],
      "item": [ {
        "linkId": "60319",
        "prefix": "5900",
        "text": "SYSTEM_COVIDLEVEL2",
        "type": "choice",
        "required": true,
        "repeats": false,
        "option": [ {
          "valueString": "==\"covidlevel2\", Selected: true"
        }, {
          "valueString": "*, Selected: false"
        } ]
      } ]
    }
  }, {
    "fullUrl": "urn:uuid:5d99f17e-02c5-41d4-a231-6c2592a2d4c9",
    "resource": {
      "resourceType": "QuestionnaireResponse",
      "id": "5d99f17e-02c5-41d4-a231-6c2592a2d4c9",
      "identifier": {
        "value": "60319"
      },
      "questionnaire": {
        "reference": "urn:uuid:644e23a0-5e8e-4011-8dab-75233e0b87e6"
      },
      "status": "completed",
      "subject": {
        "reference": "urn:uuid:20a56f46-8395-458b-8d6c-772c633b23f8"
      },
      "context": {
        "reference": "urn:uuid:65cfd802-31e8-4454-9d9c-0b63dd8ee117"
      },
      "authored": "2021-04-06T15:19:34+00:00",
      "item": [ {
        "linkId": "Tx225069",
        "text": "What is the reason for the contact?",
        "answer": [ {
          "valueString": "a prescription request"
        } ]
      } ]
    }
  }, {
    "fullUrl": "urn:uuid:644e23a0-5e8e-4011-8dab-75233e0b87e6",
    "resource": {
      "resourceType": "Questionnaire",
      "id": "644e23a0-5e8e-4011-8dab-75233e0b87e6",
      "identifier": [ {
        "value": "60319"
      } ],
      "version": "2021-04-06T15:19:34.083Z",
      "status": "active",
      "experimental": false,
      "date": "2021-04-06T15:19:34+00:00",
      "publisher": "User ID: 'HADFIELDR' User name: 'Ryan Hadfield' User skill set: 'T3'",
      "lastReviewDate": "2021-04-06",
      "contact": [ {
        "telecom": [ {
          "system": "phone",
          "value": "0111 111 1111"
        } ]
      } ],
      "subjectType": [ "Patient" ],
      "item": [ {
        "linkId": "60319",
        "prefix": "6000",
        "text": "What is the reason for the contact?",
        "type": "choice",
        "required": true,
        "repeats": false,
        "option": [ {
          "valueString": "a child protection/vulnerable adult concern (specify), Selected: false"
        }, {
          "valueString": "a social or domestic emergency, Selected: false"
        }, {
          "valueString": "a prescription request, Selected: true"
        }, {
          "valueString": "an appointment request, Selected: false"
        }, {
          "valueString": "a request for health or medication information, Selected: false"
        }, {
          "valueString": "public health alert information, Selected: false"
        } ]
      } ]
    }
  }, {
    "fullUrl": "urn:uuid:9023cb00-d16c-4bb0-85dd-8ff1b69856e3",
    "resource": {
      "resourceType": "QuestionnaireResponse",
      "id": "9023cb00-d16c-4bb0-85dd-8ff1b69856e3",
      "identifier": {
        "value": "60319"
      },
      "questionnaire": {
        "reference": "urn:uuid:061edeba-fa58-4a42-ab4f-0962b5f30741"
      },
      "status": "completed",
      "subject": {
        "reference": "urn:uuid:20a56f46-8395-458b-8d6c-772c633b23f8"
      },
      "context": {
        "reference": "urn:uuid:65cfd802-31e8-4454-9d9c-0b63dd8ee117"
      },
      "authored": "2021-04-06T15:19:34+00:00",
      "item": [ {
        "linkId": "Tx220957",
        "text": "Is this contact about a new or worsening illness?",
        "answer": [ {
          "valueString": "no"
        } ]
      } ]
    }
  }, {
    "fullUrl": "urn:uuid:061edeba-fa58-4a42-ab4f-0962b5f30741",
    "resource": {
      "resourceType": "Questionnaire",
      "id": "061edeba-fa58-4a42-ab4f-0962b5f30741",
      "identifier": [ {
        "value": "60319"
      } ],
      "version": "2021-04-06T15:19:34.083Z",
      "status": "active",
      "experimental": false,
      "date": "2021-04-06T15:19:34+00:00",
      "publisher": "User ID: 'HADFIELDR' User name: 'Ryan Hadfield' User skill set: 'T3'",
      "lastReviewDate": "2021-04-06",
      "contact": [ {
        "telecom": [ {
          "system": "phone",
          "value": "0111 111 1111"
        } ]
      } ],
      "subjectType": [ "Patient" ],
      "item": [ {
        "linkId": "60319",
        "prefix": "1400",
        "text": "Is this contact about a new or worsening illness?",
        "type": "choice",
        "required": true,
        "repeats": false,
        "option": [ {
          "valueString": "yes, Selected: false"
        }, {
          "valueString": "not sure, Selected: false"
        }, {
          "valueString": "no, Selected: true"
        } ]
      } ]
    }
  }, {
    "fullUrl": "urn:uuid:1b787656-6fac-4520-a3d9-f8aaa0c68bf2",
    "resource": {
      "resourceType": "QuestionnaireResponse",
      "id": "1b787656-6fac-4520-a3d9-f8aaa0c68bf2",
      "identifier": {
        "value": "60319"
      },
      "questionnaire": {
        "reference": "urn:uuid:2977c5a1-b51d-42b2-9a76-dd1e4992d08d"
      },
      "status": "completed",
      "subject": {
        "reference": "urn:uuid:20a56f46-8395-458b-8d6c-772c633b23f8"
      },
      "context": {
        "reference": "urn:uuid:65cfd802-31e8-4454-9d9c-0b63dd8ee117"
      },
      "authored": "2021-04-06T15:19:34+00:00",
      "item": [ {
        "linkId": "Tx221352",
        "text": "Have you got enough medication to last until the surgery opens?",
        "answer": [ {
          "valueString": "no"
        } ]
      } ]
    }
  }, {
    "fullUrl": "urn:uuid:2977c5a1-b51d-42b2-9a76-dd1e4992d08d",
    "resource": {
      "resourceType": "Questionnaire",
      "id": "2977c5a1-b51d-42b2-9a76-dd1e4992d08d",
      "identifier": [ {
        "value": "60319"
      } ],
      "version": "2021-04-06T15:19:34.083Z",
      "status": "active",
      "experimental": false,
      "date": "2021-04-06T15:19:34+00:00",
      "publisher": "User ID: 'HADFIELDR' User name: 'Ryan Hadfield' User skill set: 'T3'",
      "lastReviewDate": "2021-04-06",
      "contact": [ {
        "telecom": [ {
          "system": "phone",
          "value": "0111 111 1111"
        } ]
      } ],
      "subjectType": [ "Patient" ],
      "item": [ {
        "linkId": "60319",
        "prefix": "1500",
        "text": "Have you got enough medication to last until the surgery opens?",
        "type": "choice",
        "required": true,
        "repeats": false,
        "option": [ {
          "valueString": "yes, Selected: false"
        }, {
          "valueString": "not sure, Selected: false"
        }, {
          "valueString": "no, Selected: true"
        } ]
      } ]
    }
  }, {
    "fullUrl": "urn:uuid:679f96f1-1331-4fcb-9f97-7fcf19a8216c",
    "resource": {
      "resourceType": "QuestionnaireResponse",
      "id": "679f96f1-1331-4fcb-9f97-7fcf19a8216c",
      "identifier": {
        "value": "60319"
      },
      "questionnaire": {
        "reference": "urn:uuid:d6d4cfdc-f68a-48cf-bfb6-d5e579e3bf81"
      },
      "status": "completed",
      "subject": {
        "reference": "urn:uuid:20a56f46-8395-458b-8d6c-772c633b23f8"
      },
      "context": {
        "reference": "urn:uuid:65cfd802-31e8-4454-9d9c-0b63dd8ee117"
      },
      "authored": "2021-04-06T15:19:34+00:00"
    }
  }, {
    "fullUrl": "urn:uuid:d6d4cfdc-f68a-48cf-bfb6-d5e579e3bf81",
    "resource": {
      "resourceType": "Questionnaire",
      "id": "d6d4cfdc-f68a-48cf-bfb6-d5e579e3bf81",
      "identifier": [ {
        "value": "60319"
      } ],
      "version": "2021-04-06T15:19:34.083Z",
      "status": "active",
      "experimental": false,
      "date": "2021-04-06T15:19:34+00:00",
      "publisher": "User ID: 'HADFIELDR' User name: 'Ryan Hadfield' User skill set: 'T3'",
      "lastReviewDate": "2021-04-06",
      "contact": [ {
        "telecom": [ {
          "system": "phone",
          "value": "0111 111 1111"
        } ]
      } ],
      "subjectType": [ "Patient" ]
    }
  }, {
    "fullUrl": "urn:uuid:c1ca767d-4bb5-4f1c-b505-7dcc024abdca",
    "resource": {
      "resourceType": "QuestionnaireResponse",
      "id": "c1ca767d-4bb5-4f1c-b505-7dcc024abdca",
      "identifier": {
        "value": "60319"
      },
      "questionnaire": {
        "reference": "urn:uuid:bb631df8-1c4b-483d-9fbc-b3d7fdb20aa3"
      },
      "status": "completed",
      "subject": {
        "reference": "urn:uuid:20a56f46-8395-458b-8d6c-772c633b23f8"
      },
      "context": {
        "reference": "urn:uuid:65cfd802-31e8-4454-9d9c-0b63dd8ee117"
      },
      "authored": "2021-04-06T15:19:34+00:00",
      "item": [ {
        "linkId": "Tx224231",
        "text": "FROM WHAT YOU HAVE HEARD IS A CONSULTATION WITH A PRESCRIBER NEEDED?",
        "answer": [ {
          "valueString": "no"
        } ]
      } ]
    }
  }, {
    "fullUrl": "urn:uuid:bb631df8-1c4b-483d-9fbc-b3d7fdb20aa3",
    "resource": {
      "resourceType": "Questionnaire",
      "id": "bb631df8-1c4b-483d-9fbc-b3d7fdb20aa3",
      "identifier": [ {
        "value": "60319"
      } ],
      "version": "2021-04-06T15:19:34.083Z",
      "status": "active",
      "experimental": false,
      "date": "2021-04-06T15:19:34+00:00",
      "publisher": "User ID: 'HADFIELDR' User name: 'Ryan Hadfield' User skill set: 'T3'",
      "lastReviewDate": "2021-04-06",
      "contact": [ {
        "telecom": [ {
          "system": "phone",
          "value": "0111 111 1111"
        } ]
      } ],
      "subjectType": [ "Patient" ],
      "item": [ {
        "linkId": "60319",
        "prefix": "0",
        "text": "FROM WHAT YOU HAVE HEARD IS A CONSULTATION WITH A PRESCRIBER NEEDED?",
        "type": "choice",
        "required": true,
        "repeats": false,
        "option": [ {
          "valueString": "yes, Selected: false"
        }, {
          "valueString": "not sure, Selected: false"
        }, {
          "valueString": "no, Selected: true"
        } ]
      } ]
    }
  }, {
    "fullUrl": "urn:uuid:6faa551a-4cf9-4edd-afe4-c761eb5857a4",
    "resource": {
      "resourceType": "QuestionnaireResponse",
      "id": "6faa551a-4cf9-4edd-afe4-c761eb5857a4",
      "identifier": {
        "value": "60319"
      },
      "questionnaire": {
        "reference": "urn:uuid:39348976-2c73-4688-bf5a-d6b4254f8aaa"
      },
      "status": "completed",
      "subject": {
        "reference": "urn:uuid:20a56f46-8395-458b-8d6c-772c633b23f8"
      },
      "context": {
        "reference": "urn:uuid:65cfd802-31e8-4454-9d9c-0b63dd8ee117"
      },
      "authored": "2021-04-06T15:19:34+00:00",
      "item": [ {
        "linkId": "Tx222687",
        "text": "Have you got any of the medication available at the moment?",
        "answer": [ {
          "valueString": "no"
        } ]
      } ]
    }
  }, {
    "fullUrl": "urn:uuid:39348976-2c73-4688-bf5a-d6b4254f8aaa",
    "resource": {
      "resourceType": "Questionnaire",
      "id": "39348976-2c73-4688-bf5a-d6b4254f8aaa",
      "identifier": [ {
        "value": "60319"
      } ],
      "version": "2021-04-06T15:19:34.083Z",
      "status": "active",
      "experimental": false,
      "date": "2021-04-06T15:19:34+00:00",
      "publisher": "User ID: 'HADFIELDR' User name: 'Ryan Hadfield' User skill set: 'T3'",
      "lastReviewDate": "2021-04-06",
      "contact": [ {
        "telecom": [ {
          "system": "phone",
          "value": "0111 111 1111"
        } ]
      } ],
      "subjectType": [ "Patient" ],
      "item": [ {
        "linkId": "60319",
        "prefix": "200",
        "text": "Have you got any of the medication available at the moment?",
        "type": "choice",
        "required": true,
        "repeats": false,
        "option": [ {
          "valueString": "yes, Selected: false"
        }, {
          "valueString": "not sure, Selected: false"
        }, {
          "valueString": "no, Selected: true"
        } ]
      } ]
    }
  }, {
    "fullUrl": "urn:uuid:605584ab-8ee1-46b1-8c97-e863384e246d",
    "resource": {
      "resourceType": "QuestionnaireResponse",
      "id": "605584ab-8ee1-46b1-8c97-e863384e246d",
      "identifier": {
        "value": "60319"
      },
      "questionnaire": {
        "reference": "urn:uuid:20fb4dec-7694-473c-aa67-b1119e236048"
      },
      "status": "completed",
      "subject": {
        "reference": "urn:uuid:20a56f46-8395-458b-8d6c-772c633b23f8"
      },
      "context": {
        "reference": "urn:uuid:65cfd802-31e8-4454-9d9c-0b63dd8ee117"
      },
      "authored": "2021-04-06T15:19:34+00:00",
      "item": [ {
        "linkId": "Tx221367",
        "text": "When is the next dose due?",
        "answer": [ {
          "valueString": "over 12 hours time"
        } ]
      } ]
    }
  }, {
    "fullUrl": "urn:uuid:20fb4dec-7694-473c-aa67-b1119e236048",
    "resource": {
      "resourceType": "Questionnaire",
      "id": "20fb4dec-7694-473c-aa67-b1119e236048",
      "identifier": [ {
        "value": "60319"
      } ],
      "version": "2021-04-06T15:19:34.083Z",
      "status": "active",
      "experimental": false,
      "date": "2021-04-06T15:19:34+00:00",
      "publisher": "User ID: 'HADFIELDR' User name: 'Ryan Hadfield' User skill set: 'T3'",
      "lastReviewDate": "2021-04-06",
      "contact": [ {
        "telecom": [ {
          "system": "phone",
          "value": "0111 111 1111"
        } ]
      } ],
      "subjectType": [ "Patient" ],
      "item": [ {
        "linkId": "60319",
        "prefix": "100",
        "text": "When is the next dose due?",
        "type": "choice",
        "required": true,
        "repeats": false,
        "option": [ {
          "valueString": "within the next 2 hours, Selected: false"
        }, {
          "valueString": "within the next 6 hours, Selected: false"
        }, {
          "valueString": "within the next 12 hours, Selected: false"
        }, {
          "valueString": "over 12 hours time, Selected: true"
        }, {
          "valueString": "not sure, Selected: false"
        } ]
      } ]
    }
  }, {
    "fullUrl": "urn:uuid:a2b39cec-1c3e-41b7-bcff-57b81b915a5a",
    "resource": {
      "resourceType": "QuestionnaireResponse",
      "id": "a2b39cec-1c3e-41b7-bcff-57b81b915a5a",
      "identifier": {
        "value": "60319"
      },
      "questionnaire": {
        "reference": "urn:uuid:347fbced-22bb-4987-8d60-ea0d6502a4c3"
      },
      "status": "completed",
      "subject": {
        "reference": "urn:uuid:20a56f46-8395-458b-8d6c-772c633b23f8"
      },
      "context": {
        "reference": "urn:uuid:65cfd802-31e8-4454-9d9c-0b63dd8ee117"
      },
      "authored": "2021-04-06T15:19:34+00:00",
      "item": [ {
        "linkId": "Tx223441",
        "text": "STRING:SDPCRepeatPrescription",
        "answer": [ {
          "valueString": "\"PC repeat prescription\""
        } ]
      } ]
    }
  }, {
    "fullUrl": "urn:uuid:347fbced-22bb-4987-8d60-ea0d6502a4c3",
    "resource": {
      "resourceType": "Questionnaire",
      "id": "347fbced-22bb-4987-8d60-ea0d6502a4c3",
      "identifier": [ {
        "value": "60319"
      } ],
      "version": "2021-04-06T15:19:34.083Z",
      "status": "active",
      "experimental": false,
      "date": "2021-04-06T15:19:34+00:00",
      "publisher": "User ID: 'HADFIELDR' User name: 'Ryan Hadfield' User skill set: 'T3'",
      "lastReviewDate": "2021-04-06",
      "contact": [ {
        "telecom": [ {
          "system": "phone",
          "value": "0111 111 1111"
        } ]
      } ],
      "subjectType": [ "Patient" ],
      "item": [ {
        "linkId": "60319",
        "prefix": "1100",
        "text": "STRING:SDPCRepeatPrescription",
        "type": "choice",
        "required": true,
        "repeats": false,
        "option": [ {
          "valueString": "\"PC repeat prescription\", Selected: true"
        } ]
      } ]
    }
  }, {
    "fullUrl": "urn:uuid:2e0aa1a4-dced-455d-a9f6-efbad69092f9",
    "resource": {
      "resourceType": "QuestionnaireResponse",
      "id": "2e0aa1a4-dced-455d-a9f6-efbad69092f9",
      "identifier": {
        "value": "60319"
      },
      "questionnaire": {
        "reference": "urn:uuid:dd6892c0-0e7a-49a6-92bd-a4e612a41c5b"
      },
      "status": "completed",
      "subject": {
        "reference": "urn:uuid:20a56f46-8395-458b-8d6c-772c633b23f8"
      },
      "context": {
        "reference": "urn:uuid:65cfd802-31e8-4454-9d9c-0b63dd8ee117"
      },
      "authored": "2021-04-06T15:19:34+00:00"
    }
  }, {
    "fullUrl": "urn:uuid:dd6892c0-0e7a-49a6-92bd-a4e612a41c5b",
    "resource": {
      "resourceType": "Questionnaire",
      "id": "dd6892c0-0e7a-49a6-92bd-a4e612a41c5b",
      "identifier": [ {
        "value": "60319"
      } ],
      "version": "2021-04-06T15:19:34.083Z",
      "status": "active",
      "experimental": false,
      "date": "2021-04-06T15:19:34+00:00",
      "publisher": "User ID: 'HADFIELDR' User name: 'Ryan Hadfield' User skill set: 'T3'",
      "lastReviewDate": "2021-04-06",
      "contact": [ {
        "telecom": [ {
          "system": "phone",
          "value": "0111 111 1111"
        } ]
      } ],
      "subjectType": [ "Patient" ]
    }
  }, {
    "fullUrl": "urn:uuid:85f172db-289c-4cd7-a736-faf4e29c3a81",
    "resource": {
      "resourceType": "QuestionnaireResponse",
      "id": "85f172db-289c-4cd7-a736-faf4e29c3a81",
      "identifier": {
        "value": "60319"
      },
      "questionnaire": {
        "reference": "urn:uuid:87029562-d409-462f-b6e2-49f0df159678"
      },
      "status": "completed",
      "subject": {
        "reference": "urn:uuid:20a56f46-8395-458b-8d6c-772c633b23f8"
      },
      "context": {
        "reference": "urn:uuid:65cfd802-31e8-4454-9d9c-0b63dd8ee117"
      },
      "authored": "2021-04-06T15:19:34+00:00"
    }
  }, {
    "fullUrl": "urn:uuid:87029562-d409-462f-b6e2-49f0df159678",
    "resource": {
      "resourceType": "Questionnaire",
      "id": "87029562-d409-462f-b6e2-49f0df159678",
      "identifier": [ {
        "value": "60319"
      } ],
      "version": "2021-04-06T15:19:34.083Z",
      "status": "active",
      "experimental": false,
      "date": "2021-04-06T15:19:34+00:00",
      "publisher": "User ID: 'HADFIELDR' User name: 'Ryan Hadfield' User skill set: 'T3'",
      "lastReviewDate": "2021-04-06",
      "contact": [ {
        "telecom": [ {
          "system": "phone",
          "value": "0111 111 1111"
        } ]
      } ],
      "subjectType": [ "Patient" ]
    }
  }, {
    "fullUrl": "urn:uuid:80064ab8-0402-48bf-b583-81450d99b99f",
    "resource": {
      "resourceType": "PractitionerRole",
      "id": "80064ab8-0402-48bf-b583-81450d99b99f",
      "practitioner": {
        "reference": "urn:uuid:89ff2ce8-6b28-45b2-8fa3-3c043d203941"
      },
      "organization": {
        "reference": "urn:uuid:179f390c-a257-4d76-a6f6-1f163d9b353d"
      },
      "code": [ {
        "coding": [ {
          "system": "2.16.840.1.113883.2.1.3.2.4.17.339",
          "code": "DOCTOR",
          "display": "Doctor"
        } ]
      } ]
    }
  }, {
    "fullUrl": "urn:uuid:179f390c-a257-4d76-a6f6-1f163d9b353d",
    "resource": {
      "resourceType": "Organization",
      "id": "179f390c-a257-4d76-a6f6-1f163d9b353d",
      "identifier": [ {
        "value": "RYE"
      } ],
      "name": "RepresentedOrg Name"
    }
  }, {
    "fullUrl": "urn:uuid:54463ab8-ab05-45dc-9f1b-8bd11a449188",
    "resource": {
      "resourceType": "PractitionerRole",
      "id": "54463ab8-ab05-45dc-9f1b-8bd11a449188",
      "practitioner": {
        "reference": "urn:uuid:25bd0d0a-c592-4231-8bfb-00bd133b1965"
      },
      "organization": {
        "reference": "urn:uuid:038ee42b-8f12-40c1-a3a9-435c3595657d"
      },
      "code": [ {
        "coding": [ {
          "system": "2.16.840.1.113883.2.1.3.2.4.17.196",
          "code": "R0010",
          "display": "Medical Director"
        } ]
      } ]
    }
  }, {
    "fullUrl": "urn:uuid:038ee42b-8f12-40c1-a3a9-435c3595657d",
    "resource": {
      "resourceType": "Organization",
      "id": "038ee42b-8f12-40c1-a3a9-435c3595657d",
      "identifier": [ {
        "value": "RYE"
      } ],
      "name": "RepresentedOrgNameRYE"
    }
  }, {
    "fullUrl": "urn:uuid:953266bf-0d85-4dc7-bc1b-37d996e3c210",
    "resource": {
      "resourceType": "RelatedPerson",
      "id": "953266bf-0d85-4dc7-bc1b-37d996e3c210",
      "patient": {
        "reference": "urn:uuid:20a56f46-8395-458b-8d6c-772c633b23f8"
      },
      "relationship": {
        "coding": [ {
          "system": "http://hl7.org/fhir/v2/0131",
          "code": "C",
          "display": "Emergency Contact"
        } ]
      },
      "telecom": [ {
        "system": "phone",
        "value": "tel:000000000000"
      } ]
    }
  }, {
    "fullUrl": "urn:uuid:2d3fa6b3-88a2-4b7d-a388-c78055103ee8",
    "resource": {
      "resourceType": "Device",
      "id": "2d3fa6b3-88a2-4b7d-a388-c78055103ee8",
      "model": "111 Adaptor",
      "version": "0.11.0"
    }
  }, {
    "fullUrl": "urn:uuid:5e26909a-dfdf-4a44-9947-f5033835b148",
    "resource": {
      "resourceType": "List",
      "id": "5e26909a-dfdf-4a44-9947-f5033835b148",
      "status": "current",
      "mode": "working",
      "title": "111 Report List",
      "code": {
        "coding": [ {
          "system": "http://snomed.info/sct",
          "code": "225390008",
          "display": "Triage"
        } ]
      },
      "subject": {
        "reference": "urn:uuid:20a56f46-8395-458b-8d6c-772c633b23f8"
      },
      "encounter": {
        "reference": "urn:uuid:65cfd802-31e8-4454-9d9c-0b63dd8ee117"
      },
      "date": "2021-10-01T07:34:03+00:00",
      "source": {
        "reference": "urn:uuid:2d3fa6b3-88a2-4b7d-a388-c78055103ee8"
      },
      "orderedBy": {
        "coding": [ {
          "system": "http://hl7.org/fhir/list-order",
          "code": "event-date",
          "display": "Sorted by Event Date"
        } ]
      },
      "entry": [ {
        "item": {
          "reference": "urn:uuid:fe870079-cd6c-44df-aec2-b031f30fb474"
        }
      }, {
        "item": {
          "reference": "urn:uuid:8960eae3-c920-423d-bdae-85d999dfbc81"
        }
      }, {
        "item": {
          "reference": "urn:uuid:038ee42b-8f12-40c1-a3a9-435c3595657d"
        }
      }, {
        "item": {
          "reference": "urn:uuid:3a07f724-845e-4bbd-9f50-de8674962d43"
        }
      }, {
        "item": {
          "reference": "urn:uuid:c845f258-e923-46a7-8c0c-4fa3cd03bb4f"
        }
      }, {
        "item": {
          "reference": "urn:uuid:179f390c-a257-4d76-a6f6-1f163d9b353d"
        }
      }, {
        "item": {
          "reference": "urn:uuid:953266bf-0d85-4dc7-bc1b-37d996e3c210"
        }
      }, {
        "item": {
          "reference": "urn:uuid:89ff2ce8-6b28-45b2-8fa3-3c043d203941"
        }
      }, {
        "item": {
          "reference": "urn:uuid:25bd0d0a-c592-4231-8bfb-00bd133b1965"
        }
      }, {
        "item": {
          "reference": "urn:uuid:d658f66c-c6b0-42b6-bca7-0caa17a4e9be"
        }
      }, {
        "item": {
          "reference": "urn:uuid:a2b39cec-1c3e-41b7-bcff-57b81b915a5a"
        }
      }, {
        "item": {
          "reference": "urn:uuid:a9e24f1a-5fb8-42f0-8062-9707381f12f9"
        }
      }, {
        "item": {
          "reference": "urn:uuid:5d98b685-ccd4-4d63-adbb-b2a826c1bacf"
        }
      }, {
        "item": {
          "reference": "urn:uuid:2977c5a1-b51d-42b2-9a76-dd1e4992d08d"
        }
      }, {
        "item": {
          "reference": "urn:uuid:c1ca767d-4bb5-4f1c-b505-7dcc024abdca"
        }
      }, {
        "item": {
          "reference": "urn:uuid:bda24f61-648e-4419-a6cf-92ede80cb020"
        }
      }, {
        "item": {
          "reference": "urn:uuid:2e0aa1a4-dced-455d-a9f6-efbad69092f9"
        }
      }, {
        "item": {
          "reference": "urn:uuid:644e23a0-5e8e-4011-8dab-75233e0b87e6"
        }
      }, {
        "item": {
          "reference": "urn:uuid:2ff2999a-ec3b-43c4-ab56-3e5c416a015b"
        }
      }, {
        "item": {
          "reference": "urn:uuid:39348976-2c73-4688-bf5a-d6b4254f8aaa"
        }
      }, {
        "item": {
          "reference": "urn:uuid:9023cb00-d16c-4bb0-85dd-8ff1b69856e3"
        }
      }, {
        "item": {
          "reference": "urn:uuid:347fbced-22bb-4987-8d60-ea0d6502a4c3"
        }
      }, {
        "item": {
          "reference": "urn:uuid:061edeba-fa58-4a42-ab4f-0962b5f30741"
        }
      }, {
        "item": {
          "reference": "urn:uuid:7f747b35-ee74-4ec1-9aa6-43e1a2f6c884"
        }
      }, {
        "item": {
          "reference": "urn:uuid:a608f44b-8628-48cc-920e-1baafdc31b17"
        }
      }, {
        "item": {
          "reference": "urn:uuid:85f172db-289c-4cd7-a736-faf4e29c3a81"
        }
      }, {
        "item": {
          "reference": "urn:uuid:679f96f1-1331-4fcb-9f97-7fcf19a8216c"
        }
      }, {
        "item": {
          "reference": "urn:uuid:605584ab-8ee1-46b1-8c97-e863384e246d"
        }
      }, {
        "item": {
          "reference": "urn:uuid:6faa551a-4cf9-4edd-afe4-c761eb5857a4"
        }
      }, {
        "item": {
          "reference": "urn:uuid:20fb4dec-7694-473c-aa67-b1119e236048"
        }
      }, {
        "item": {
          "reference": "urn:uuid:4ef386dc-cd18-4f11-bec5-bab6f9ff8196"
        }
      }, {
        "item": {
          "reference": "urn:uuid:1b787656-6fac-4520-a3d9-f8aaa0c68bf2"
        }
      }, {
        "item": {
          "reference": "urn:uuid:51ff016c-7fc3-42e3-b496-031e37a659f8"
        }
      }, {
        "item": {
          "reference": "urn:uuid:bb631df8-1c4b-483d-9fbc-b3d7fdb20aa3"
        }
      }, {
        "item": {
          "reference": "urn:uuid:dd6892c0-0e7a-49a6-92bd-a4e612a41c5b"
        }
      }, {
        "item": {
          "reference": "urn:uuid:87029562-d409-462f-b6e2-49f0df159678"
        }
      }, {
        "item": {
          "reference": "urn:uuid:5d99f17e-02c5-41d4-a231-6c2592a2d4c9"
        }
      }, {
        "item": {
          "reference": "urn:uuid:f9c7eca4-a169-44a1-b575-0ea75439d530"
        }
      }, {
        "item": {
          "reference": "urn:uuid:d6d4cfdc-f68a-48cf-bfb6-d5e579e3bf81"
        }
      }, {
        "item": {
          "reference": "urn:uuid:8c9bc136-97f5-44b1-95ad-3c7754aa4309"
        }
      } ]
    }
  } ]
}