{
  "resourceType": "Bundle",
  "identifier": {
    "type": {
      "text": "ClinicalDocument VersionNumber"
    },
    "value": "1"
  },
  "type": "message",
  "entry": [ {
    "fullUrl": "urn:uuid:05040617-33BA-4344-AA59-281CF2FE63CA",
    "resource": {
      "resourceType": "MessageHeader",
      "id": "05040617-33BA-4344-AA59-281CF2FE63CA",
      "event": {
        "system": "https://fhir.nhs.uk/STU3/CodeSystem/EventType-1",
        "code": "referral-1",
        "display": "Referral"
      },
      "destination": [ {
        "endpoint": "urn:nhs-uk:addressing:ods:FHR04RPX:DOSServiceID:2000038667"
      } ],
      "timestamp": "2021-04-06T15:19:34.000+00:00",
      "source": {
        "name": "NHS 111 Adaptor",
        "endpoint": "http://localhost:8080/report"
      },
      "reason": {
        "coding": [ {
          "system": "urn:nhs-itk:ns:201005:interaction",
          "code": "urn:nhs-itk:interaction:primaryOutofHourRecipientNHS111CDADocument-v2-0"
        } ]
      }
    }
  }, {
    "fullUrl": "urn:uuid:d010bda3-47e3-4c3a-ab64-3d7715c4cb03",
    "resource": {
      "resourceType": "Encounter",
      "id": "d010bda3-47e3-4c3a-ab64-3d7715c4cb03",
      "identifier": [ {
        "system": "2.16.840.1.113883.2.1.3.2.4.18.34",
        "value": "AdastraCaseGUID34"
      }, {
        "system": "2.16.840.1.113883.2.1.3.2.4.18.35",
        "value": "AdastraCaseID35"
      }, {
        "system": "2.16.840.1.113883.2.1.3.2.4.18.49",
        "value": "AdastraCaseGUID49"
      } ],
      "status": "finished",
      "type": [ {
        "text": "111 Encounter Referral"
      } ],
      "subject": {
        "reference": "urn:uuid:7eaa6d7b-a4f2-4975-b9aa-422222ff4569"
      },
      "participant": [ {
        "type": [ {
          "coding": [ {
            "system": "http://hl7.org/fhir/ValueSet/encounter-participant-type",
            "code": "PPRF",
            "display": "Author"
          } ]
        } ],
        "individual": {
          "reference": "urn:uuid:2de3c873-ec27-43a2-a99e-dc3f5b85f6b3"
        }
      }, {
        "type": [ {
          "text": "Informant"
        } ],
        "individual": {
          "reference": "urn:uuid:dffecc9d-8b12-42c9-b698-21763b783840"
        }
      }, {
        "type": [ {
          "coding": [ {
            "system": "http://hl7.org/fhir/ValueSet/encounter-participant-type",
            "code": "ATND",
            "display": "Responsible Party"
          } ]
        } ],
        "individual": {
          "reference": "urn:uuid:3422b8d8-8b17-4570-a7e3-d8032d139cd2"
        }
      } ],
      "period": {
        "start": "2021-04-06T15:19:34+00:00"
      },
      "location": [ {
        "location": {
          "reference": "urn:uuid:db6983a1-2452-4f87-bc3c-2df315205d5c"
        },
        "status": "completed"
      } ],
      "serviceProvider": {
        "reference": "urn:uuid:07addde3-d852-42c2-abfc-a47a0de7f15b"
      }
    }
  }, {
    "fullUrl": "urn:uuid:07addde3-d852-42c2-abfc-a47a0de7f15b",
    "resource": {
      "resourceType": "Organization",
      "id": "07addde3-d852-42c2-abfc-a47a0de7f15b",
      "active": true,
      "type": [ {
        "text": "CST"
      } ],
      "name": "CustodianName"
    }
  }, {
    "fullUrl": "urn:uuid:2de3c873-ec27-43a2-a99e-dc3f5b85f6b3",
    "resource": {
      "resourceType": "Practitioner",
      "id": "2de3c873-ec27-43a2-a99e-dc3f5b85f6b3",
      "active": true,
      "name": [ {
        "use": "official",
        "family": "AuthorAssignedPerson FamilyName",
        "given": [ "AuthorAssignedPerson GivenName" ]
      } ]
    }
  }, {
    "fullUrl": "urn:uuid:dffecc9d-8b12-42c9-b698-21763b783840",
    "resource": {
      "resourceType": "RelatedPerson",
      "id": "dffecc9d-8b12-42c9-b698-21763b783840",
      "active": true,
      "patient": {
        "reference": "urn:uuid:7eaa6d7b-a4f2-4975-b9aa-422222ff4569"
      },
      "relationship": {
        "coding": [ {
          "system": "2.16.840.1.113883.2.1.3.2.4.16.45",
          "code": "16",
          "display": "Relative"
        } ]
      },
      "name": [ {
        "text": "RelatedPerson Name"
      } ],
      "telecom": [ {
        "system": "phone",
        "value": "tel:01111111111",
        "use": "home"
      } ],
      "gender": "unknown"
    }
  }, {
    "fullUrl": "urn:uuid:3422b8d8-8b17-4570-a7e3-d8032d139cd2",
    "resource": {
      "resourceType": "Practitioner",
      "id": "3422b8d8-8b17-4570-a7e3-d8032d139cd2",
      "active": true,
      "name": [ {
        "use": "official",
        "family": "ResponsablePartyMD FamilyName",
        "given": [ "ResponsablePartyMD GivenName" ]
      } ]
    }
  }, {
    "fullUrl": "urn:uuid:db6983a1-2452-4f87-bc3c-2df315205d5c",
    "resource": {
      "resourceType": "Location",
      "id": "db6983a1-2452-4f87-bc3c-2df315205d5c",
      "name": "Incident Location",
      "address": {
        "type": "physical",
        "line": [ "HealthCareFacility AddressLine1", "HealthCareFacility AddressLine2", "HealthCareFacility AddressLine3", "HealthCareFacility AddressLine4", "HealthCareFacility AddressLine5" ],
        "postalCode": "LOH25 4NS"
      }
    }
  }, {
    "fullUrl": "urn:uuid:7eaa6d7b-a4f2-4975-b9aa-422222ff4569",
    "resource": {
      "resourceType": "Patient",
      "id": "7eaa6d7b-a4f2-4975-b9aa-422222ff4569",
      "active": true,
      "name": [ {
        "use": "official",
        "family": "Patient Family Name",
        "given": [ "Patient Given Name" ]
      } ],
      "telecom": [ {
        "system": "phone",
        "value": "tel:000000000000",
        "use": "home"
      }, {
        "system": "phone",
        "value": "tel:000000000000"
      } ],
      "gender": "other",
      "birthDate": "1990-02-02",
      "address": [ {
        "use": "home",
        "line": [ "Home Address Line 1", "Home Address Line 2", "Home Address Line 3", "Home Address Line 4", "Home Address Line 5" ],
        "postalCode": "HA25 4NS"
      }, {
        "type": "physical",
        "line": [ "Home Address Line 1", "Home Address Line 2", "Home Address Line 3", "Home Address Line 4", "Home Address Line 5" ],
        "postalCode": "PH25 4NS"
      } ]
    }
  }, {
    "fullUrl": "urn:uuid:56fc3c68-4fe3-46ce-b1d8-f78133f83a78",
    "resource": {
      "resourceType": "HealthcareService",
      "id": "56fc3c68-4fe3-46ce-b1d8-f78133f83a78",
      "active": true,
      "providedBy": {
        "reference": "urn:uuid:6c183ca3-5d3d-49e1-963c-6e4bba885452"
      },
      "location": [ {
        "reference": "urn:uuid:837a067c-1fa9-4c49-afca-f7e9c5d3f196"
      } ],
      "name": "InformationRecipient IntendedRecipient Name FHR0"
    }
  }, {
    "fullUrl": "urn:uuid:837a067c-1fa9-4c49-afca-f7e9c5d3f196",
    "resource": {
      "resourceType": "Location",
      "id": "837a067c-1fa9-4c49-afca-f7e9c5d3f196",
      "managingOrganization": {
        "reference": "urn:uuid:6c183ca3-5d3d-49e1-963c-6e4bba885452"
      }
    }
  }, {
    "fullUrl": "urn:uuid:6c183ca3-5d3d-49e1-963c-6e4bba885452",
    "resource": {
      "resourceType": "Organization",
      "id": "6c183ca3-5d3d-49e1-963c-6e4bba885452",
      "identifier": [ {
        "value": "FHR04RPX"
      } ],
      "type": [ {
        "coding": [ {
          "code": "PRCP",
          "display": "InformationRecipient IntendedRecipient Name FHR0"
        } ]
      } ],
      "name": "InformationRecipient IntendedRecipient Name FHR0"
    }
  }, {
    "fullUrl": "urn:uuid:e9d2252b-677d-46bb-8a4f-9966d877ee87",
    "resource": {
      "resourceType": "ReferralRequest",
      "id": "e9d2252b-677d-46bb-8a4f-9966d877ee87",
      "status": "active",
      "intent": "plan",
      "priority": "routine",
      "subject": {
        "reference": "urn:uuid:7eaa6d7b-a4f2-4975-b9aa-422222ff4569"
      },
      "context": {
        "reference": "urn:uuid:d010bda3-47e3-4c3a-ab64-3d7715c4cb03"
      },
      "occurrencePeriod": {
        "start": "2021-10-11T06:41:50+00:00",
        "end": "2021-10-11T07:41:50+00:00"
      },
      "authoredOn": "2021-04-06T15:19:29+00:00",
      "requester": {
        "agent": {
          "reference": "urn:uuid:869ba294-b7a5-4b49-90bc-183a46ed9d49"
        },
        "onBehalfOf": {
          "reference": "urn:uuid:07addde3-d852-42c2-abfc-a47a0de7f15b"
        }
      },
      "recipient": [ {
        "reference": "urn:uuid:56fc3c68-4fe3-46ce-b1d8-f78133f83a78"
      } ],
      "reasonReference": [ {
        "reference": "urn:uuid:aa8b861b-a5bd-4117-81e1-06c6b6146824"
      } ],
      "supportingInfo": [ {
        "reference": "urn:uuid:60fb023e-c892-46e5-9634-19b476fe7449"
      } ]
    }
  }, {
    "fullUrl": "urn:uuid:60fb023e-c892-46e5-9634-19b476fe7449",
    "resource": {
      "resourceType": "ProcedureRequest",
      "id": "60fb023e-c892-46e5-9634-19b476fe7449",
      "status": "active",
      "intent": "plan",
      "priority": "routine",
      "doNotPerform": false,
      "code": {
        "coding": [ {
          "system": "2.16.840.1.113883.2.1.3.2.4.17.325",
          "code": "DispoCodeDx87",
          "display": "DispoName - Repeat Prescription required within 24 hours"
        } ]
      },
      "subject": {
        "reference": "urn:uuid:7eaa6d7b-a4f2-4975-b9aa-422222ff4569"
      },
      "occurrencePeriod": {
        "start": "2021-10-11T06:41:50+00:00",
        "end": "2021-10-11T07:41:50+00:00"
      },
      "reasonReference": [ {
        "reference": "urn:uuid:aa8b861b-a5bd-4117-81e1-06c6b6146824"
      } ]
    }
  }, {
    "fullUrl": "urn:uuid:877403ae-ff20-412d-94a3-34e046a83924",
    "resource": {
      "resourceType": "Composition",
      "id": "877403ae-ff20-412d-94a3-34e046a83924",
      "identifier": {
        "use": "usual",
        "value": "E2DF04F7-95CA-40AD-808D-797C0A89E39C"
      },
      "status": "final",
      "type": {
        "coding": [ {
          "system": "http://snomed.info/sct",
          "code": "371531000",
          "display": "Report of clinical encounter (record artifact)"
        } ]
      },
      "subject": {
        "reference": "urn:uuid:7eaa6d7b-a4f2-4975-b9aa-422222ff4569"
      },
      "encounter": {
        "reference": "urn:uuid:d010bda3-47e3-4c3a-ab64-3d7715c4cb03"
      },
      "date": "2021-10-11T06:41:50+00:00",
      "author": [ {
        "reference": "urn:uuid:2de3c873-ec27-43a2-a99e-dc3f5b85f6b3"
      } ],
      "title": "111 Report",
      "confidentiality": "N",
      "section": [ {
        "section": [ {
          "title": "ComponentTitle - Patient's Reported Condition",
          "text": {
            "status": "generated",
            "div": "<div xmlns=\"http://www.w3.org/1999/xhtml\">&lt;content&gt;ComponentText - Pharmacy ITK Testing&lt;/content&gt;\n                                                    &lt;br/&gt;</div>"
          }
        }, {
          "title": "ComponentTitle - Pathways Disposition",
          "text": {
            "status": "generated",
            "div": "<div xmlns=\"http://www.w3.org/1999/xhtml\">ComponentText - Repeat Prescription required within 24 hours (Dx87)                                         &lt;br/&gt;\n                                                    &lt;br/&gt;                                         Selected service: Springvale, Fraser Road, Kings Worthy, Winchester&lt;br/&gt;</div>"
          }
        }, {
          "title": "ComponentTitle - Consultation Summary",
          "text": {
            "status": "generated",
            "div": "<div xmlns=\"http://www.w3.org/1999/xhtml\">ComponentText - Prescription request&lt;br/&gt;Not enough medication until surgery opens&lt;br/&gt;No medication available&lt;br/&gt;Next dose due in over 12 hours time&lt;br/&gt;</div>"
          }
        }, {
          "title": "ComponentTitle - Pathways Assessment",
          "text": {
            "status": "generated",
            "div": "<div xmlns=\"http://www.w3.org/1999/xhtml\">ComponentText - Reason for call menu - continued to next list.&lt;br/&gt;A prescription request was the main reason for the contact.&lt;br/&gt;The main reason for the contact was not a new or worsening illness.&lt;br/&gt;The individual did not have enough medication to last until the surgery next opened.&lt;br/&gt;The medication was suitable for repeat prescribing without further consultation.&lt;br/&gt;The individual had no medication available.&lt;br/&gt;The next dose was due in over 12 hours time.&lt;br/&gt;Instructions given were: The individual needs a repeat prescription.&lt;br/&gt;Directory of Services referral: Springvale, Fraser Road, Kings Worthy, Winchester&lt;br/&gt;</div>"
          }
        }, {
          "title": "ComponentTitle - Advice Given",
          "text": {
            "status": "generated",
            "div": "<div xmlns=\"http://www.w3.org/1999/xhtml\">ComponentText - I will arrange for a clinician or pharmacist to speak to the individual.&lt;br/&gt;IF THE RECOMMENDED TIMEFRAME FALLS OUTSIDE OPENING HOURS: I will arrange for a clinician to speak to the individual.&lt;br/&gt;\n                                                    &lt;br/&gt;</div>"
          }
        }, {
          "title": "ComponentTitle - Information And Advice Given"
        }, {
          "title": "ComponentTitle - Disposition",
          "text": {
            "status": "generated",
            "div": "<div xmlns=\"http://www.w3.org/1999/xhtml\">&lt;content&gt;ComponentText - Repeat Prescription required within 24 hours&lt;br/&gt;\n                                                    &lt;/content&gt;\n                                                    &lt;br/&gt;\n                                                    &lt;br/&gt;</div>"
          }
        } ]
      }, {
        "title": "CarePlan",
        "entry": [ {
          "reference": "urn:uuid:6396201e-d4a8-44ca-a192-094d40bc9b86"
        } ]
      }, {
        "title": "ReferralRequest",
        "entry": [ {
          "reference": "urn:uuid:e9d2252b-677d-46bb-8a4f-9966d877ee87"
        } ]
      }, {
        "title": "QuestionnaireResponse",
        "entry": [ {
          "reference": "urn:uuid:a296e321-1576-4be0-80cb-b946bce8f61d"
        } ]
      }, {
        "title": "QuestionnaireResponse",
        "entry": [ {
          "reference": "urn:uuid:82b31dab-c5d4-421d-ab20-df5b6138f795"
        } ]
      }, {
        "title": "QuestionnaireResponse",
        "entry": [ {
          "reference": "urn:uuid:383e8f94-dd52-499b-b4bd-d240d9b335ae"
        } ]
      }, {
        "title": "QuestionnaireResponse",
        "entry": [ {
          "reference": "urn:uuid:16d0090a-d0c1-44d0-9589-89165ae9b6a2"
        } ]
      }, {
        "title": "QuestionnaireResponse",
        "entry": [ {
          "reference": "urn:uuid:860bd07b-d716-4a36-b027-d1173055142e"
        } ]
      }, {
        "title": "QuestionnaireResponse",
        "entry": [ {
          "reference": "urn:uuid:92068da2-0634-4fd4-84ba-374b6b2e0e02"
        } ]
      }, {
        "title": "QuestionnaireResponse",
        "entry": [ {
          "reference": "urn:uuid:04ab57d0-567f-4c02-9ada-7d33b01af326"
        } ]
      }, {
        "title": "QuestionnaireResponse",
        "entry": [ {
          "reference": "urn:uuid:48eb70f9-8299-4112-8025-8c9668c9e3bf"
        } ]
      }, {
        "title": "QuestionnaireResponse",
        "entry": [ {
          "reference": "urn:uuid:cef86f40-a993-4b64-96ee-5f3114bcc3a0"
        } ]
      }, {
        "title": "QuestionnaireResponse",
        "entry": [ {
          "reference": "urn:uuid:b5e20d27-7e67-4a1f-b14c-6e5adebbb03a"
        } ]
      }, {
        "title": "QuestionnaireResponse",
        "entry": [ {
          "reference": "urn:uuid:37d24f23-90cb-4326-9aea-f56f0e839831"
        } ]
      }, {
        "title": "QuestionnaireResponse",
        "entry": [ {
          "reference": "urn:uuid:a22d3221-43e4-43f2-aef6-5a9b0499c7f1"
        } ]
      }, {
        "title": "QuestionnaireResponse",
        "entry": [ {
          "reference": "urn:uuid:cd55d139-69b3-4d6b-8e71-06b170466a0d"
        } ]
      }, {
        "title": "QuestionnaireResponse",
        "entry": [ {
          "reference": "urn:uuid:3f78b3f7-b9b1-4e4a-b923-68f769e8f0b2"
        } ]
      }, {
        "title": "QuestionnaireResponse",
        "entry": [ {
          "reference": "urn:uuid:88b76326-3c4b-4d35-a1c2-e61f58554797"
        } ]
      } ]
    }
  }, {
    "fullUrl": "urn:uuid:6396201e-d4a8-44ca-a192-094d40bc9b86",
    "resource": {
      "resourceType": "CarePlan",
      "id": "6396201e-d4a8-44ca-a192-094d40bc9b86",
      "status": "completed",
      "intent": "plan",
      "title": "ComponentTitle - Information And Advice Given",
      "subject": {
        "reference": "urn:uuid:7eaa6d7b-a4f2-4975-b9aa-422222ff4569"
      },
      "context": {
        "reference": "urn:uuid:d010bda3-47e3-4c3a-ab64-3d7715c4cb03"
      },
      "period": {
        "start": "2021-04-06T15:19:34+00:00"
      },
      "addresses": [ {
        "reference": "urn:uuid:aa8b861b-a5bd-4117-81e1-06c6b6146824"
      } ]
    }
  }, {
    "fullUrl": "urn:uuid:fab5908b-015a-42ab-8888-44410e1eaf1c",
    "resource": {
      "resourceType": "Consent",
      "id": "fab5908b-015a-42ab-8888-44410e1eaf1c",
      "identifier": {
        "use": "usual",
        "value": "E2DF04F7-95CA-40AD-808D-797C0A89E39C"
      },
      "status": "active",
      "patient": {
        "reference": "urn:uuid:7eaa6d7b-a4f2-4975-b9aa-422222ff4569"
      },
      "period": {
        "start": "2021-04-06T15:19:34+00:00"
      },
      "consentingParty": [ {
        "reference": "urn:uuid:7eaa6d7b-a4f2-4975-b9aa-422222ff4569"
      } ],
      "action": [ {
        "coding": [ {
          "system": "http://snomed.info/sct",
          "code": "425691002",
          "display": "Consent given for electronic record sharing"
        } ],
        "text": "Consent given for electronic record sharing"
      } ],
      "organization": [ {
        "reference": "urn:uuid:07addde3-d852-42c2-abfc-a47a0de7f15b"
      } ],
      "policyRule": "http://hl7.org/fhir/ConsentPolicy/opt-out",
      "data": [ {
        "meaning": "related",
        "reference": {
          "reference": "urn:uuid:d010bda3-47e3-4c3a-ab64-3d7715c4cb03"
        }
      } ]
    }
  }, {
    "fullUrl": "urn:uuid:aa8b861b-a5bd-4117-81e1-06c6b6146824",
    "resource": {
      "resourceType": "Condition",
      "id": "aa8b861b-a5bd-4117-81e1-06c6b6146824",
      "clinicalStatus": "active",
      "verificationStatus": "unknown",
      "subject": {
        "reference": "urn:uuid:7eaa6d7b-a4f2-4975-b9aa-422222ff4569"
      },
      "context": {
        "reference": "urn:uuid:d010bda3-47e3-4c3a-ab64-3d7715c4cb03"
      },
      "evidence": [ {
        "detail": [ {
          "reference": "urn:uuid:a296e321-1576-4be0-80cb-b946bce8f61d"
        } ]
      }, {
        "detail": [ {
          "reference": "urn:uuid:82b31dab-c5d4-421d-ab20-df5b6138f795"
        } ]
      }, {
        "detail": [ {
          "reference": "urn:uuid:383e8f94-dd52-499b-b4bd-d240d9b335ae"
        } ]
      }, {
        "detail": [ {
          "reference": "urn:uuid:16d0090a-d0c1-44d0-9589-89165ae9b6a2"
        } ]
      }, {
        "detail": [ {
          "reference": "urn:uuid:860bd07b-d716-4a36-b027-d1173055142e"
        } ]
      }, {
        "detail": [ {
          "reference": "urn:uuid:92068da2-0634-4fd4-84ba-374b6b2e0e02"
        } ]
      }, {
        "detail": [ {
          "reference": "urn:uuid:04ab57d0-567f-4c02-9ada-7d33b01af326"
        } ]
      }, {
        "detail": [ {
          "reference": "urn:uuid:48eb70f9-8299-4112-8025-8c9668c9e3bf"
        } ]
      }, {
        "detail": [ {
          "reference": "urn:uuid:cef86f40-a993-4b64-96ee-5f3114bcc3a0"
        } ]
      }, {
        "detail": [ {
          "reference": "urn:uuid:b5e20d27-7e67-4a1f-b14c-6e5adebbb03a"
        } ]
      }, {
        "detail": [ {
          "reference": "urn:uuid:37d24f23-90cb-4326-9aea-f56f0e839831"
        } ]
      }, {
        "detail": [ {
          "reference": "urn:uuid:a22d3221-43e4-43f2-aef6-5a9b0499c7f1"
        } ]
      }, {
        "detail": [ {
          "reference": "urn:uuid:cd55d139-69b3-4d6b-8e71-06b170466a0d"
        } ]
      }, {
        "detail": [ {
          "reference": "urn:uuid:3f78b3f7-b9b1-4e4a-b923-68f769e8f0b2"
        } ]
      }, {
        "detail": [ {
          "reference": "urn:uuid:88b76326-3c4b-4d35-a1c2-e61f58554797"
        } ]
      } ]
    }
  }, {
    "fullUrl": "urn:uuid:a296e321-1576-4be0-80cb-b946bce8f61d",
    "resource": {
      "resourceType": "QuestionnaireResponse",
      "id": "a296e321-1576-4be0-80cb-b946bce8f61d",
      "identifier": {
        "value": "60319"
      },
      "questionnaire": {
        "reference": "urn:uuid:0c736820-10e2-4be9-8a7e-c3c843b97aa1"
      },
      "status": "completed",
      "subject": {
        "reference": "urn:uuid:7eaa6d7b-a4f2-4975-b9aa-422222ff4569"
      },
      "context": {
        "reference": "urn:uuid:d010bda3-47e3-4c3a-ab64-3d7715c4cb03"
      },
      "authored": "2021-04-06T15:19:34+00:00",
      "item": [ {
        "linkId": "Tx220109",
        "text": "What is the reason for the contact?",
        "answer": [ {
          "valueString": "more"
        } ]
      } ]
    }
  }, {
    "fullUrl": "urn:uuid:0c736820-10e2-4be9-8a7e-c3c843b97aa1",
    "resource": {
      "resourceType": "Questionnaire",
      "id": "0c736820-10e2-4be9-8a7e-c3c843b97aa1",
      "identifier": [ {
        "value": "60319"
      } ],
      "version": "2021-04-06T15:19:34.083Z",
      "status": "active",
      "experimental": false,
      "date": "2021-04-06T15:19:34+00:00",
      "publisher": "User ID: 'HADFIELDR' User name: 'Ryan Hadfield' User skill set: 'T3'",
      "lastReviewDate": "2021-04-06",
      "contact": [ {
        "telecom": [ {
          "system": "phone",
          "value": "0111 111 1111"
        } ]
      } ],
      "subjectType": [ "Patient" ],
      "item": [ {
        "linkId": "60319",
        "prefix": "5",
        "text": "What is the reason for the contact?",
        "type": "choice",
        "required": true,
        "repeats": false,
        "option": [ {
          "valueString": "an injury or other health problem, Selected: false"
        }, {
          "valueString": "a need to access another healthcare service, Selected: false"
        }, {
          "valueString": "a healthcare professional requesting contact with another clinician, Selected: false"
        }, {
          "valueString": "a report of results or tests, Selected: false"
        }, {
          "valueString": "more, Selected: true"
        } ]
      } ]
    }
  }, {
    "fullUrl": "urn:uuid:82b31dab-c5d4-421d-ab20-df5b6138f795",
    "resource": {
      "resourceType": "QuestionnaireResponse",
      "id": "82b31dab-c5d4-421d-ab20-df5b6138f795",
      "identifier": {
        "value": "60319"
      },
      "questionnaire": {
        "reference": "urn:uuid:5bfe7301-149d-46fd-9cd2-4f4b7e07815a"
      },
      "status": "completed",
      "subject": {
        "reference": "urn:uuid:7eaa6d7b-a4f2-4975-b9aa-422222ff4569"
      },
      "context": {
        "reference": "urn:uuid:d010bda3-47e3-4c3a-ab64-3d7715c4cb03"
      },
      "authored": "2021-04-06T15:19:34+00:00",
      "item": [ {
        "linkId": "Tx221793",
        "text": "STRING:to'Social&information'-further'Callreason'menu",
        "answer": [ {
          "valueString": "\"present\""
        } ]
      } ]
    }
  }, {
    "fullUrl": "urn:uuid:5bfe7301-149d-46fd-9cd2-4f4b7e07815a",
    "resource": {
      "resourceType": "Questionnaire",
      "id": "5bfe7301-149d-46fd-9cd2-4f4b7e07815a",
      "identifier": [ {
        "value": "60319"
      } ],
      "version": "2021-04-06T15:19:34.083Z",
      "status": "active",
      "experimental": false,
      "date": "2021-04-06T15:19:34+00:00",
      "publisher": "User ID: 'HADFIELDR' User name: 'Ryan Hadfield' User skill set: 'T3'",
      "lastReviewDate": "2021-04-06",
      "contact": [ {
        "telecom": [ {
          "system": "phone",
          "value": "0111 111 1111"
        } ]
      } ],
      "subjectType": [ "Patient" ],
      "item": [ {
        "linkId": "60319",
        "prefix": "600",
        "text": "STRING:to'Social&information'-further'Callreason'menu",
        "type": "choice",
        "required": true,
        "repeats": false,
        "option": [ {
          "valueString": "\"present\", Selected: true"
        } ]
      } ]
    }
  }, {
    "fullUrl": "urn:uuid:383e8f94-dd52-499b-b4bd-d240d9b335ae",
    "resource": {
      "resourceType": "QuestionnaireResponse",
      "id": "383e8f94-dd52-499b-b4bd-d240d9b335ae",
      "identifier": {
        "value": "60319"
      },
      "questionnaire": {
        "reference": "urn:uuid:bfa727af-0879-4b1c-a757-0087fb730cdb"
      },
      "status": "completed",
      "subject": {
        "reference": "urn:uuid:7eaa6d7b-a4f2-4975-b9aa-422222ff4569"
      },
      "context": {
        "reference": "urn:uuid:d010bda3-47e3-4c3a-ab64-3d7715c4cb03"
      },
      "authored": "2021-04-06T15:19:34+00:00"
    }
  }, {
    "fullUrl": "urn:uuid:bfa727af-0879-4b1c-a757-0087fb730cdb",
    "resource": {
      "resourceType": "Questionnaire",
      "id": "bfa727af-0879-4b1c-a757-0087fb730cdb",
      "identifier": [ {
        "value": "60319"
      } ],
      "version": "2021-04-06T15:19:34.083Z",
      "status": "active",
      "experimental": false,
      "date": "2021-04-06T15:19:34+00:00",
      "publisher": "User ID: 'HADFIELDR' User name: 'Ryan Hadfield' User skill set: 'T3'",
      "lastReviewDate": "2021-04-06",
      "contact": [ {
        "telecom": [ {
          "system": "phone",
          "value": "0111 111 1111"
        } ]
      } ],
      "subjectType": [ "Patient" ]
    }
  }, {
    "fullUrl": "urn:uuid:16d0090a-d0c1-44d0-9589-89165ae9b6a2",
    "resource": {
      "resourceType": "QuestionnaireResponse",
      "id": "16d0090a-d0c1-44d0-9589-89165ae9b6a2",
      "identifier": {
        "value": "60319"
      },
      "questionnaire": {
        "reference": "urn:uuid:cf411e2e-8920-4474-a845-2b33be3c6ebe"
      },
      "status": "completed",
      "subject": {
        "reference": "urn:uuid:7eaa6d7b-a4f2-4975-b9aa-422222ff4569"
      },
      "context": {
        "reference": "urn:uuid:d010bda3-47e3-4c3a-ab64-3d7715c4cb03"
      },
      "authored": "2021-04-06T15:19:34+00:00",
      "item": [ {
        "linkId": "Tx221804",
        "text": "STRING:transfertofurthermenuquestionestablishedinEntryFlow",
        "answer": [ {
          "valueString": "\"present\""
        } ]
      } ]
    }
  }, {
    "fullUrl": "urn:uuid:cf411e2e-8920-4474-a845-2b33be3c6ebe",
    "resource": {
      "resourceType": "Questionnaire",
      "id": "cf411e2e-8920-4474-a845-2b33be3c6ebe",
      "identifier": [ {
        "value": "60319"
      } ],
      "version": "2021-04-06T15:19:34.083Z",
      "status": "active",
      "experimental": false,
      "date": "2021-04-06T15:19:34+00:00",
      "publisher": "User ID: 'HADFIELDR' User name: 'Ryan Hadfield' User skill set: 'T3'",
      "lastReviewDate": "2021-04-06",
      "contact": [ {
        "telecom": [ {
          "system": "phone",
          "value": "0111 111 1111"
        } ]
      } ],
      "subjectType": [ "Patient" ],
      "item": [ {
        "linkId": "60319",
        "prefix": "41",
        "text": "STRING:transfertofurthermenuquestionestablishedinEntryFlow",
        "type": "choice",
        "required": true,
        "repeats": false,
        "option": [ {
          "valueString": "\"present\", Selected: true"
        } ]
      } ]
    }
  }, {
    "fullUrl": "urn:uuid:860bd07b-d716-4a36-b027-d1173055142e",
    "resource": {
      "resourceType": "QuestionnaireResponse",
      "id": "860bd07b-d716-4a36-b027-d1173055142e",
      "identifier": {
        "value": "60319"
      },
      "questionnaire": {
        "reference": "urn:uuid:e07f94df-d89a-461f-81bf-099df4cc4103"
      },
      "status": "completed",
      "subject": {
        "reference": "urn:uuid:7eaa6d7b-a4f2-4975-b9aa-422222ff4569"
      },
      "context": {
        "reference": "urn:uuid:d010bda3-47e3-4c3a-ab64-3d7715c4cb03"
      },
      "authored": "2021-04-06T15:19:34+00:00",
      "item": [ {
        "linkId": "Tx224998",
        "text": "SYSTEM_COVIDLEVEL2",
        "answer": [ {
          "valueString": "==\"covidlevel2\""
        } ]
      } ]
    }
  }, {
    "fullUrl": "urn:uuid:e07f94df-d89a-461f-81bf-099df4cc4103",
    "resource": {
      "resourceType": "Questionnaire",
      "id": "e07f94df-d89a-461f-81bf-099df4cc4103",
      "identifier": [ {
        "value": "60319"
      } ],
      "version": "2021-04-06T15:19:34.083Z",
      "status": "active",
      "experimental": false,
      "date": "2021-04-06T15:19:34+00:00",
      "publisher": "User ID: 'HADFIELDR' User name: 'Ryan Hadfield' User skill set: 'T3'",
      "lastReviewDate": "2021-04-06",
      "contact": [ {
        "telecom": [ {
          "system": "phone",
          "value": "0111 111 1111"
        } ]
      } ],
      "subjectType": [ "Patient" ],
      "item": [ {
        "linkId": "60319",
        "prefix": "5900",
        "text": "SYSTEM_COVIDLEVEL2",
        "type": "choice",
        "required": true,
        "repeats": false,
        "option": [ {
          "valueString": "==\"covidlevel2\", Selected: true"
        }, {
          "valueString": "*, Selected: false"
        } ]
      } ]
    }
  }, {
    "fullUrl": "urn:uuid:92068da2-0634-4fd4-84ba-374b6b2e0e02",
    "resource": {
      "resourceType": "QuestionnaireResponse",
      "id": "92068da2-0634-4fd4-84ba-374b6b2e0e02",
      "identifier": {
        "value": "60319"
      },
      "questionnaire": {
        "reference": "urn:uuid:a12f98bd-e4e2-4a60-ac80-b80e2433508c"
      },
      "status": "completed",
      "subject": {
        "reference": "urn:uuid:7eaa6d7b-a4f2-4975-b9aa-422222ff4569"
      },
      "context": {
        "reference": "urn:uuid:d010bda3-47e3-4c3a-ab64-3d7715c4cb03"
      },
      "authored": "2021-04-06T15:19:34+00:00",
      "item": [ {
        "linkId": "Tx225069",
        "text": "What is the reason for the contact?",
        "answer": [ {
          "valueString": "a prescription request"
        } ]
      } ]
    }
  }, {
    "fullUrl": "urn:uuid:a12f98bd-e4e2-4a60-ac80-b80e2433508c",
    "resource": {
      "resourceType": "Questionnaire",
      "id": "a12f98bd-e4e2-4a60-ac80-b80e2433508c",
      "identifier": [ {
        "value": "60319"
      } ],
      "version": "2021-04-06T15:19:34.083Z",
      "status": "active",
      "experimental": false,
      "date": "2021-04-06T15:19:34+00:00",
      "publisher": "User ID: 'HADFIELDR' User name: 'Ryan Hadfield' User skill set: 'T3'",
      "lastReviewDate": "2021-04-06",
      "contact": [ {
        "telecom": [ {
          "system": "phone",
          "value": "0111 111 1111"
        } ]
      } ],
      "subjectType": [ "Patient" ],
      "item": [ {
        "linkId": "60319",
        "prefix": "6000",
        "text": "What is the reason for the contact?",
        "type": "choice",
        "required": true,
        "repeats": false,
        "option": [ {
          "valueString": "a child protection/vulnerable adult concern (specify), Selected: false"
        }, {
          "valueString": "a social or domestic emergency, Selected: false"
        }, {
          "valueString": "a prescription request, Selected: true"
        }, {
          "valueString": "an appointment request, Selected: false"
        }, {
          "valueString": "a request for health or medication information, Selected: false"
        }, {
          "valueString": "public health alert information, Selected: false"
        } ]
      } ]
    }
  }, {
    "fullUrl": "urn:uuid:04ab57d0-567f-4c02-9ada-7d33b01af326",
    "resource": {
      "resourceType": "QuestionnaireResponse",
      "id": "04ab57d0-567f-4c02-9ada-7d33b01af326",
      "identifier": {
        "value": "60319"
      },
      "questionnaire": {
        "reference": "urn:uuid:7eb14b1b-35d6-4cb1-8fbe-2447d8105be6"
      },
      "status": "completed",
      "subject": {
        "reference": "urn:uuid:7eaa6d7b-a4f2-4975-b9aa-422222ff4569"
      },
      "context": {
        "reference": "urn:uuid:d010bda3-47e3-4c3a-ab64-3d7715c4cb03"
      },
      "authored": "2021-04-06T15:19:34+00:00",
      "item": [ {
        "linkId": "Tx220957",
        "text": "Is this contact about a new or worsening illness?",
        "answer": [ {
          "valueString": "no"
        } ]
      } ]
    }
  }, {
    "fullUrl": "urn:uuid:7eb14b1b-35d6-4cb1-8fbe-2447d8105be6",
    "resource": {
      "resourceType": "Questionnaire",
      "id": "7eb14b1b-35d6-4cb1-8fbe-2447d8105be6",
      "identifier": [ {
        "value": "60319"
      } ],
      "version": "2021-04-06T15:19:34.083Z",
      "status": "active",
      "experimental": false,
      "date": "2021-04-06T15:19:34+00:00",
      "publisher": "User ID: 'HADFIELDR' User name: 'Ryan Hadfield' User skill set: 'T3'",
      "lastReviewDate": "2021-04-06",
      "contact": [ {
        "telecom": [ {
          "system": "phone",
          "value": "0111 111 1111"
        } ]
      } ],
      "subjectType": [ "Patient" ],
      "item": [ {
        "linkId": "60319",
        "prefix": "1400",
        "text": "Is this contact about a new or worsening illness?",
        "type": "choice",
        "required": true,
        "repeats": false,
        "option": [ {
          "valueString": "yes, Selected: false"
        }, {
          "valueString": "not sure, Selected: false"
        }, {
          "valueString": "no, Selected: true"
        } ]
      } ]
    }
  }, {
    "fullUrl": "urn:uuid:48eb70f9-8299-4112-8025-8c9668c9e3bf",
    "resource": {
      "resourceType": "QuestionnaireResponse",
      "id": "48eb70f9-8299-4112-8025-8c9668c9e3bf",
      "identifier": {
        "value": "60319"
      },
      "questionnaire": {
        "reference": "urn:uuid:8faf2871-2438-4ab2-874b-224b8ac2a173"
      },
      "status": "completed",
      "subject": {
        "reference": "urn:uuid:7eaa6d7b-a4f2-4975-b9aa-422222ff4569"
      },
      "context": {
        "reference": "urn:uuid:d010bda3-47e3-4c3a-ab64-3d7715c4cb03"
      },
      "authored": "2021-04-06T15:19:34+00:00",
      "item": [ {
        "linkId": "Tx221352",
        "text": "Have you got enough medication to last until the surgery opens?",
        "answer": [ {
          "valueString": "no"
        } ]
      } ]
    }
  }, {
    "fullUrl": "urn:uuid:8faf2871-2438-4ab2-874b-224b8ac2a173",
    "resource": {
      "resourceType": "Questionnaire",
      "id": "8faf2871-2438-4ab2-874b-224b8ac2a173",
      "identifier": [ {
        "value": "60319"
      } ],
      "version": "2021-04-06T15:19:34.083Z",
      "status": "active",
      "experimental": false,
      "date": "2021-04-06T15:19:34+00:00",
      "publisher": "User ID: 'HADFIELDR' User name: 'Ryan Hadfield' User skill set: 'T3'",
      "lastReviewDate": "2021-04-06",
      "contact": [ {
        "telecom": [ {
          "system": "phone",
          "value": "0111 111 1111"
        } ]
      } ],
      "subjectType": [ "Patient" ],
      "item": [ {
        "linkId": "60319",
        "prefix": "1500",
        "text": "Have you got enough medication to last until the surgery opens?",
        "type": "choice",
        "required": true,
        "repeats": false,
        "option": [ {
          "valueString": "yes, Selected: false"
        }, {
          "valueString": "not sure, Selected: false"
        }, {
          "valueString": "no, Selected: true"
        } ]
      } ]
    }
  }, {
    "fullUrl": "urn:uuid:cef86f40-a993-4b64-96ee-5f3114bcc3a0",
    "resource": {
      "resourceType": "QuestionnaireResponse",
      "id": "cef86f40-a993-4b64-96ee-5f3114bcc3a0",
      "identifier": {
        "value": "60319"
      },
      "questionnaire": {
        "reference": "urn:uuid:e3a04f89-d17c-4af6-adff-66ace49040ef"
      },
      "status": "completed",
      "subject": {
        "reference": "urn:uuid:7eaa6d7b-a4f2-4975-b9aa-422222ff4569"
      },
      "context": {
        "reference": "urn:uuid:d010bda3-47e3-4c3a-ab64-3d7715c4cb03"
      },
      "authored": "2021-04-06T15:19:34+00:00"
    }
  }, {
    "fullUrl": "urn:uuid:e3a04f89-d17c-4af6-adff-66ace49040ef",
    "resource": {
      "resourceType": "Questionnaire",
      "id": "e3a04f89-d17c-4af6-adff-66ace49040ef",
      "identifier": [ {
        "value": "60319"
      } ],
      "version": "2021-04-06T15:19:34.083Z",
      "status": "active",
      "experimental": false,
      "date": "2021-04-06T15:19:34+00:00",
      "publisher": "User ID: 'HADFIELDR' User name: 'Ryan Hadfield' User skill set: 'T3'",
      "lastReviewDate": "2021-04-06",
      "contact": [ {
        "telecom": [ {
          "system": "phone",
          "value": "0111 111 1111"
        } ]
      } ],
      "subjectType": [ "Patient" ]
    }
  }, {
    "fullUrl": "urn:uuid:b5e20d27-7e67-4a1f-b14c-6e5adebbb03a",
    "resource": {
      "resourceType": "QuestionnaireResponse",
      "id": "b5e20d27-7e67-4a1f-b14c-6e5adebbb03a",
      "identifier": {
        "value": "60319"
      },
      "questionnaire": {
        "reference": "urn:uuid:15d9da6e-0a23-4d02-8c82-798b241b0529"
      },
      "status": "completed",
      "subject": {
        "reference": "urn:uuid:7eaa6d7b-a4f2-4975-b9aa-422222ff4569"
      },
      "context": {
        "reference": "urn:uuid:d010bda3-47e3-4c3a-ab64-3d7715c4cb03"
      },
      "authored": "2021-04-06T15:19:34+00:00",
      "item": [ {
        "linkId": "Tx224231",
        "text": "FROM WHAT YOU HAVE HEARD IS A CONSULTATION WITH A PRESCRIBER NEEDED?",
        "answer": [ {
          "valueString": "no"
        } ]
      } ]
    }
  }, {
    "fullUrl": "urn:uuid:15d9da6e-0a23-4d02-8c82-798b241b0529",
    "resource": {
      "resourceType": "Questionnaire",
      "id": "15d9da6e-0a23-4d02-8c82-798b241b0529",
      "identifier": [ {
        "value": "60319"
      } ],
      "version": "2021-04-06T15:19:34.083Z",
      "status": "active",
      "experimental": false,
      "date": "2021-04-06T15:19:34+00:00",
      "publisher": "User ID: 'HADFIELDR' User name: 'Ryan Hadfield' User skill set: 'T3'",
      "lastReviewDate": "2021-04-06",
      "contact": [ {
        "telecom": [ {
          "system": "phone",
          "value": "0111 111 1111"
        } ]
      } ],
      "subjectType": [ "Patient" ],
      "item": [ {
        "linkId": "60319",
        "prefix": "0",
        "text": "FROM WHAT YOU HAVE HEARD IS A CONSULTATION WITH A PRESCRIBER NEEDED?",
        "type": "choice",
        "required": true,
        "repeats": false,
        "option": [ {
          "valueString": "yes, Selected: false"
        }, {
          "valueString": "not sure, Selected: false"
        }, {
          "valueString": "no, Selected: true"
        } ]
      } ]
    }
  }, {
    "fullUrl": "urn:uuid:37d24f23-90cb-4326-9aea-f56f0e839831",
    "resource": {
      "resourceType": "QuestionnaireResponse",
      "id": "37d24f23-90cb-4326-9aea-f56f0e839831",
      "identifier": {
        "value": "60319"
      },
      "questionnaire": {
        "reference": "urn:uuid:fbfc4a78-0167-4166-a41a-4be88c736698"
      },
      "status": "completed",
      "subject": {
        "reference": "urn:uuid:7eaa6d7b-a4f2-4975-b9aa-422222ff4569"
      },
      "context": {
        "reference": "urn:uuid:d010bda3-47e3-4c3a-ab64-3d7715c4cb03"
      },
      "authored": "2021-04-06T15:19:34+00:00",
      "item": [ {
        "linkId": "Tx222687",
        "text": "Have you got any of the medication available at the moment?",
        "answer": [ {
          "valueString": "no"
        } ]
      } ]
    }
  }, {
    "fullUrl": "urn:uuid:fbfc4a78-0167-4166-a41a-4be88c736698",
    "resource": {
      "resourceType": "Questionnaire",
      "id": "fbfc4a78-0167-4166-a41a-4be88c736698",
      "identifier": [ {
        "value": "60319"
      } ],
      "version": "2021-04-06T15:19:34.083Z",
      "status": "active",
      "experimental": false,
      "date": "2021-04-06T15:19:34+00:00",
      "publisher": "User ID: 'HADFIELDR' User name: 'Ryan Hadfield' User skill set: 'T3'",
      "lastReviewDate": "2021-04-06",
      "contact": [ {
        "telecom": [ {
          "system": "phone",
          "value": "0111 111 1111"
        } ]
      } ],
      "subjectType": [ "Patient" ],
      "item": [ {
        "linkId": "60319",
        "prefix": "200",
        "text": "Have you got any of the medication available at the moment?",
        "type": "choice",
        "required": true,
        "repeats": false,
        "option": [ {
          "valueString": "yes, Selected: false"
        }, {
          "valueString": "not sure, Selected: false"
        }, {
          "valueString": "no, Selected: true"
        } ]
      } ]
    }
  }, {
    "fullUrl": "urn:uuid:a22d3221-43e4-43f2-aef6-5a9b0499c7f1",
    "resource": {
      "resourceType": "QuestionnaireResponse",
      "id": "a22d3221-43e4-43f2-aef6-5a9b0499c7f1",
      "identifier": {
        "value": "60319"
      },
      "questionnaire": {
        "reference": "urn:uuid:e830777a-74b5-4b97-ad2e-42a6fd4272aa"
      },
      "status": "completed",
      "subject": {
        "reference": "urn:uuid:7eaa6d7b-a4f2-4975-b9aa-422222ff4569"
      },
      "context": {
        "reference": "urn:uuid:d010bda3-47e3-4c3a-ab64-3d7715c4cb03"
      },
      "authored": "2021-04-06T15:19:34+00:00",
      "item": [ {
        "linkId": "Tx221367",
        "text": "When is the next dose due?",
        "answer": [ {
          "valueString": "over 12 hours time"
        } ]
      } ]
    }
  }, {
    "fullUrl": "urn:uuid:e830777a-74b5-4b97-ad2e-42a6fd4272aa",
    "resource": {
      "resourceType": "Questionnaire",
      "id": "e830777a-74b5-4b97-ad2e-42a6fd4272aa",
      "identifier": [ {
        "value": "60319"
      } ],
      "version": "2021-04-06T15:19:34.083Z",
      "status": "active",
      "experimental": false,
      "date": "2021-04-06T15:19:34+00:00",
      "publisher": "User ID: 'HADFIELDR' User name: 'Ryan Hadfield' User skill set: 'T3'",
      "lastReviewDate": "2021-04-06",
      "contact": [ {
        "telecom": [ {
          "system": "phone",
          "value": "0111 111 1111"
        } ]
      } ],
      "subjectType": [ "Patient" ],
      "item": [ {
        "linkId": "60319",
        "prefix": "100",
        "text": "When is the next dose due?",
        "type": "choice",
        "required": true,
        "repeats": false,
        "option": [ {
          "valueString": "within the next 2 hours, Selected: false"
        }, {
          "valueString": "within the next 6 hours, Selected: false"
        }, {
          "valueString": "within the next 12 hours, Selected: false"
        }, {
          "valueString": "over 12 hours time, Selected: true"
        }, {
          "valueString": "not sure, Selected: false"
        } ]
      } ]
    }
  }, {
    "fullUrl": "urn:uuid:cd55d139-69b3-4d6b-8e71-06b170466a0d",
    "resource": {
      "resourceType": "QuestionnaireResponse",
      "id": "cd55d139-69b3-4d6b-8e71-06b170466a0d",
      "identifier": {
        "value": "60319"
      },
      "questionnaire": {
        "reference": "urn:uuid:6ea1a438-d365-4b7b-b0cb-dab5f20f348b"
      },
      "status": "completed",
      "subject": {
        "reference": "urn:uuid:7eaa6d7b-a4f2-4975-b9aa-422222ff4569"
      },
      "context": {
        "reference": "urn:uuid:d010bda3-47e3-4c3a-ab64-3d7715c4cb03"
      },
      "authored": "2021-04-06T15:19:34+00:00",
      "item": [ {
        "linkId": "Tx223441",
        "text": "STRING:SDPCRepeatPrescription",
        "answer": [ {
          "valueString": "\"PC repeat prescription\""
        } ]
      } ]
    }
  }, {
    "fullUrl": "urn:uuid:6ea1a438-d365-4b7b-b0cb-dab5f20f348b",
    "resource": {
      "resourceType": "Questionnaire",
      "id": "6ea1a438-d365-4b7b-b0cb-dab5f20f348b",
      "identifier": [ {
        "value": "60319"
      } ],
      "version": "2021-04-06T15:19:34.083Z",
      "status": "active",
      "experimental": false,
      "date": "2021-04-06T15:19:34+00:00",
      "publisher": "User ID: 'HADFIELDR' User name: 'Ryan Hadfield' User skill set: 'T3'",
      "lastReviewDate": "2021-04-06",
      "contact": [ {
        "telecom": [ {
          "system": "phone",
          "value": "0111 111 1111"
        } ]
      } ],
      "subjectType": [ "Patient" ],
      "item": [ {
        "linkId": "60319",
        "prefix": "1100",
        "text": "STRING:SDPCRepeatPrescription",
        "type": "choice",
        "required": true,
        "repeats": false,
        "option": [ {
          "valueString": "\"PC repeat prescription\", Selected: true"
        } ]
      } ]
    }
  }, {
    "fullUrl": "urn:uuid:3f78b3f7-b9b1-4e4a-b923-68f769e8f0b2",
    "resource": {
      "resourceType": "QuestionnaireResponse",
      "id": "3f78b3f7-b9b1-4e4a-b923-68f769e8f0b2",
      "identifier": {
        "value": "60319"
      },
      "questionnaire": {
        "reference": "urn:uuid:c348638c-d85b-4d07-b92b-ffb213b0c89e"
      },
      "status": "completed",
      "subject": {
        "reference": "urn:uuid:7eaa6d7b-a4f2-4975-b9aa-422222ff4569"
      },
      "context": {
        "reference": "urn:uuid:d010bda3-47e3-4c3a-ab64-3d7715c4cb03"
      },
      "authored": "2021-04-06T15:19:34+00:00"
    }
  }, {
    "fullUrl": "urn:uuid:c348638c-d85b-4d07-b92b-ffb213b0c89e",
    "resource": {
      "resourceType": "Questionnaire",
      "id": "c348638c-d85b-4d07-b92b-ffb213b0c89e",
      "identifier": [ {
        "value": "60319"
      } ],
      "version": "2021-04-06T15:19:34.083Z",
      "status": "active",
      "experimental": false,
      "date": "2021-04-06T15:19:34+00:00",
      "publisher": "User ID: 'HADFIELDR' User name: 'Ryan Hadfield' User skill set: 'T3'",
      "lastReviewDate": "2021-04-06",
      "contact": [ {
        "telecom": [ {
          "system": "phone",
          "value": "0111 111 1111"
        } ]
      } ],
      "subjectType": [ "Patient" ]
    }
  }, {
    "fullUrl": "urn:uuid:88b76326-3c4b-4d35-a1c2-e61f58554797",
    "resource": {
      "resourceType": "QuestionnaireResponse",
      "id": "88b76326-3c4b-4d35-a1c2-e61f58554797",
      "identifier": {
        "value": "60319"
      },
      "questionnaire": {
        "reference": "urn:uuid:a0ae90fd-eb83-4e19-97e9-620eb51132a4"
      },
      "status": "completed",
      "subject": {
        "reference": "urn:uuid:7eaa6d7b-a4f2-4975-b9aa-422222ff4569"
      },
      "context": {
        "reference": "urn:uuid:d010bda3-47e3-4c3a-ab64-3d7715c4cb03"
      },
      "authored": "2021-04-06T15:19:34+00:00"
    }
  }, {
    "fullUrl": "urn:uuid:a0ae90fd-eb83-4e19-97e9-620eb51132a4",
    "resource": {
      "resourceType": "Questionnaire",
      "id": "a0ae90fd-eb83-4e19-97e9-620eb51132a4",
      "identifier": [ {
        "value": "60319"
      } ],
      "version": "2021-04-06T15:19:34.083Z",
      "status": "active",
      "experimental": false,
      "date": "2021-04-06T15:19:34+00:00",
      "publisher": "User ID: 'HADFIELDR' User name: 'Ryan Hadfield' User skill set: 'T3'",
      "lastReviewDate": "2021-04-06",
      "contact": [ {
        "telecom": [ {
          "system": "phone",
          "value": "0111 111 1111"
        } ]
      } ],
      "subjectType": [ "Patient" ]
    }
  }, {
    "fullUrl": "urn:uuid:033b9b3b-3fb3-4e58-b9ec-bf56c4d0f317",
    "resource": {
      "resourceType": "PractitionerRole",
      "id": "033b9b3b-3fb3-4e58-b9ec-bf56c4d0f317",
      "practitioner": {
        "reference": "urn:uuid:2de3c873-ec27-43a2-a99e-dc3f5b85f6b3"
      },
      "organization": {
        "reference": "urn:uuid:6c98027c-88e4-4a26-961d-bcb797468796"
      },
      "code": [ {
        "coding": [ {
          "system": "2.16.840.1.113883.2.1.3.2.4.17.339",
          "code": "DOCTOR",
          "display": "Doctor"
        } ]
      } ]
    }
  }, {
    "fullUrl": "urn:uuid:6c98027c-88e4-4a26-961d-bcb797468796",
    "resource": {
      "resourceType": "Organization",
      "id": "6c98027c-88e4-4a26-961d-bcb797468796",
      "identifier": [ {
        "value": "RYE"
      } ],
      "name": "RepresentedOrg Name"
    }
  }, {
    "fullUrl": "urn:uuid:d5ce5bdb-21f8-48c3-8ecd-8dd780313d32",
    "resource": {
      "resourceType": "PractitionerRole",
      "id": "d5ce5bdb-21f8-48c3-8ecd-8dd780313d32",
      "practitioner": {
        "reference": "urn:uuid:3422b8d8-8b17-4570-a7e3-d8032d139cd2"
      },
      "organization": {
        "reference": "urn:uuid:24b7fe94-2f89-401d-9fa0-205742d6a42f"
      },
      "code": [ {
        "coding": [ {
          "system": "2.16.840.1.113883.2.1.3.2.4.17.196",
          "code": "R0010",
          "display": "Medical Director"
        } ]
      } ]
    }
  }, {
    "fullUrl": "urn:uuid:24b7fe94-2f89-401d-9fa0-205742d6a42f",
    "resource": {
      "resourceType": "Organization",
      "id": "24b7fe94-2f89-401d-9fa0-205742d6a42f",
      "identifier": [ {
        "value": "RYE"
      } ],
      "name": "RepresentedOrgNameRYE"
    }
  }, {
    "fullUrl": "urn:uuid:c40d0975-9727-466a-9d1c-aa38e26e6ff5",
    "resource": {
      "resourceType": "RelatedPerson",
      "id": "c40d0975-9727-466a-9d1c-aa38e26e6ff5",
      "patient": {
        "reference": "urn:uuid:7eaa6d7b-a4f2-4975-b9aa-422222ff4569"
      },
      "relationship": {
        "coding": [ {
          "system": "http://hl7.org/fhir/v2/0131",
          "code": "C",
          "display": "Emergency Contact"
        } ]
      },
      "telecom": [ {
        "system": "phone",
        "value": "tel:000000000000"
      } ]
    }
  }, {
    "fullUrl": "urn:uuid:869ba294-b7a5-4b49-90bc-183a46ed9d49",
    "resource": {
      "resourceType": "Device",
      "id": "869ba294-b7a5-4b49-90bc-183a46ed9d49",
      "model": "111 Adaptor",
      "version": "1.0.0"
    }
  }, {
    "fullUrl": "urn:uuid:2e62ddba-770c-43fb-a0db-61a13adcd398",
    "resource": {
      "resourceType": "List",
      "id": "2e62ddba-770c-43fb-a0db-61a13adcd398",
      "status": "current",
      "mode": "working",
      "title": "111 Report List",
      "code": {
        "coding": [ {
          "system": "http://snomed.info/sct",
          "code": "225390008",
          "display": "Triage"
        } ]
      },
      "subject": {
        "reference": "urn:uuid:7eaa6d7b-a4f2-4975-b9aa-422222ff4569"
      },
      "encounter": {
        "reference": "urn:uuid:d010bda3-47e3-4c3a-ab64-3d7715c4cb03"
      },
      "date": "2021-10-11T06:41:50+00:00",
      "source": {
        "reference": "urn:uuid:869ba294-b7a5-4b49-90bc-183a46ed9d49"
      },
      "orderedBy": {
        "coding": [ {
          "system": "http://hl7.org/fhir/list-order",
          "code": "event-date",
          "display": "Sorted by Event Date"
        } ]
      },
      "entry": [ {
        "item": {
          "reference": "urn:uuid:24b7fe94-2f89-401d-9fa0-205742d6a42f"
        }
      }, {
        "item": {
          "reference": "urn:uuid:dffecc9d-8b12-42c9-b698-21763b783840"
        }
      }, {
        "item": {
          "reference": "urn:uuid:6c98027c-88e4-4a26-961d-bcb797468796"
        }
      }, {
        "item": {
          "reference": "urn:uuid:07addde3-d852-42c2-abfc-a47a0de7f15b"
        }
      }, {
        "item": {
          "reference": "urn:uuid:aa8b861b-a5bd-4117-81e1-06c6b6146824"
        }
      }, {
        "item": {
          "reference": "urn:uuid:2de3c873-ec27-43a2-a99e-dc3f5b85f6b3"
        }
      }, {
        "item": {
          "reference": "urn:uuid:c40d0975-9727-466a-9d1c-aa38e26e6ff5"
        }
      }, {
        "item": {
          "reference": "urn:uuid:3422b8d8-8b17-4570-a7e3-d8032d139cd2"
        }
      }, {
        "item": {
          "reference": "urn:uuid:6c183ca3-5d3d-49e1-963c-6e4bba885452"
        }
      }, {
        "item": {
          "reference": "urn:uuid:e830777a-74b5-4b97-ad2e-42a6fd4272aa"
        }
      }, {
        "item": {
          "reference": "urn:uuid:48eb70f9-8299-4112-8025-8c9668c9e3bf"
        }
      }, {
        "item": {
          "reference": "urn:uuid:8faf2871-2438-4ab2-874b-224b8ac2a173"
        }
      }, {
        "item": {
          "reference": "urn:uuid:16d0090a-d0c1-44d0-9589-89165ae9b6a2"
        }
      }, {
        "item": {
          "reference": "urn:uuid:92068da2-0634-4fd4-84ba-374b6b2e0e02"
        }
      }, {
        "item": {
          "reference": "urn:uuid:04ab57d0-567f-4c02-9ada-7d33b01af326"
        }
      }, {
        "item": {
          "reference": "urn:uuid:15d9da6e-0a23-4d02-8c82-798b241b0529"
        }
      }, {
        "item": {
          "reference": "urn:uuid:3f78b3f7-b9b1-4e4a-b923-68f769e8f0b2"
        }
      }, {
        "item": {
          "reference": "urn:uuid:b5e20d27-7e67-4a1f-b14c-6e5adebbb03a"
        }
      }, {
        "item": {
          "reference": "urn:uuid:a22d3221-43e4-43f2-aef6-5a9b0499c7f1"
        }
      }, {
        "item": {
          "reference": "urn:uuid:7eb14b1b-35d6-4cb1-8fbe-2447d8105be6"
        }
      }, {
        "item": {
          "reference": "urn:uuid:a12f98bd-e4e2-4a60-ac80-b80e2433508c"
        }
      }, {
        "item": {
          "reference": "urn:uuid:cf411e2e-8920-4474-a845-2b33be3c6ebe"
        }
      }, {
        "item": {
          "reference": "urn:uuid:82b31dab-c5d4-421d-ab20-df5b6138f795"
        }
      }, {
        "item": {
          "reference": "urn:uuid:6ea1a438-d365-4b7b-b0cb-dab5f20f348b"
        }
      }, {
        "item": {
          "reference": "urn:uuid:5bfe7301-149d-46fd-9cd2-4f4b7e07815a"
        }
      }, {
        "item": {
          "reference": "urn:uuid:cd55d139-69b3-4d6b-8e71-06b170466a0d"
        }
      }, {
        "item": {
          "reference": "urn:uuid:c348638c-d85b-4d07-b92b-ffb213b0c89e"
        }
      }, {
        "item": {
          "reference": "urn:uuid:a296e321-1576-4be0-80cb-b946bce8f61d"
        }
      }, {
        "item": {
          "reference": "urn:uuid:e3a04f89-d17c-4af6-adff-66ace49040ef"
        }
      }, {
        "item": {
          "reference": "urn:uuid:bfa727af-0879-4b1c-a757-0087fb730cdb"
        }
      }, {
        "item": {
          "reference": "urn:uuid:860bd07b-d716-4a36-b027-d1173055142e"
        }
      }, {
        "item": {
          "reference": "urn:uuid:fbfc4a78-0167-4166-a41a-4be88c736698"
        }
      }, {
        "item": {
          "reference": "urn:uuid:e07f94df-d89a-461f-81bf-099df4cc4103"
        }
      }, {
        "item": {
          "reference": "urn:uuid:88b76326-3c4b-4d35-a1c2-e61f58554797"
        }
      }, {
        "item": {
          "reference": "urn:uuid:37d24f23-90cb-4326-9aea-f56f0e839831"
        }
      }, {
        "item": {
          "reference": "urn:uuid:383e8f94-dd52-499b-b4bd-d240d9b335ae"
        }
      }, {
        "item": {
          "reference": "urn:uuid:0c736820-10e2-4be9-8a7e-c3c843b97aa1"
        }
      }, {
        "item": {
          "reference": "urn:uuid:a0ae90fd-eb83-4e19-97e9-620eb51132a4"
        }
      }, {
        "item": {
          "reference": "urn:uuid:cef86f40-a993-4b64-96ee-5f3114bcc3a0"
        }
      }, {
        "item": {
          "reference": "urn:uuid:e9d2252b-677d-46bb-8a4f-9966d877ee87"
        }
      } ]
    }
  } ]
}