{
  "resourceType": "Bundle",
  "identifier": {
    "type": {
      "text": "ClinicalDocument VersionNumber"
    },
    "value": "1"
  },
  "type": "message",
  "entry": [ {
    "fullUrl": "urn:uuid:4A4DE551-F585-49BB-A1D3-12DCC764AF52",
    "resource": {
      "resourceType": "MessageHeader",
      "id": "4A4DE551-F585-49BB-A1D3-12DCC764AF52",
      "event": {
        "system": "https://fhir.nhs.uk/STU3/CodeSystem/EventType-1",
        "code": "referral-1",
        "display": "Referral"
      },
      "destination": [ {
        "endpoint": "urn:nhs-uk:addressing:ods:NVE06:DOSServiceID:1335970392"
      } ],
      "timestamp": "2021-05-11T08:58:52.000+00:00",
      "source": {
        "name": "NHS 111 Adaptor",
        "endpoint": "http://localhost:8080/report"
      },
      "reason": {
        "coding": [ {
          "system": "urn:nhs-itk:ns:201005:interaction",
          "code": "urn:nhs-itk:interaction:primaryOutofHourRecipientNHS111CDADocument-v2-0"
        } ]
      }
    }
  }, {
    "fullUrl": "urn:uuid:84bb5d07-8a89-4dbb-a857-678019f672e6",
    "resource": {
      "resourceType": "Encounter",
      "id": "84bb5d07-8a89-4dbb-a857-678019f672e6",
      "identifier": [ {
        "system": "2.16.840.1.113883.2.1.3.2.4.18.34",
        "value": "D21E3785-658E-4B35-A8B2-2E59906B8983"
      }, {
        "system": "2.16.840.1.113883.2.1.3.2.4.18.35",
        "value": "2100310384"
      } ],
      "status": "finished",
      "type": [ {
        "text": "111 Encounter Referral"
      } ],
      "subject": {
        "reference": "urn:uuid:7019e8cb-2b00-42cf-9c6f-6b360e115ddf"
      },
      "participant": [ {
        "type": [ {
          "coding": [ {
            "system": "http://hl7.org/fhir/ValueSet/encounter-participant-type",
            "code": "PPRF",
            "display": "Author"
          } ]
        } ],
        "individual": {
          "reference": "urn:uuid:8d5be979-2f15-4ce4-89e4-edec26406021"
        }
      }, {
        "type": [ {
          "text": "Informant"
        } ],
        "individual": {
          "reference": "urn:uuid:aec55f46-20f9-4ac9-89e0-ecc2c35cffac"
        }
      } ],
      "period": {
        "start": "2021-05-11T08:58:52+00:00"
      },
      "location": [ {
        "location": {
          "reference": "urn:uuid:c2bb6364-0a48-4e30-940a-5ca5eddd0510"
        },
        "status": "active"
      }, {
        "location": {
          "reference": "urn:uuid:7e7e30f0-bc1a-490c-a8e6-9d23f32cfa7a"
        },
        "status": "completed"
      } ],
      "serviceProvider": {
        "reference": "urn:uuid:a9447f5b-e442-473b-a2ca-13ae09f3df76"
      }
    }
  }, {
    "fullUrl": "urn:uuid:a9447f5b-e442-473b-a2ca-13ae09f3df76",
    "resource": {
      "resourceType": "Organization",
      "id": "a9447f5b-e442-473b-a2ca-13ae09f3df76",
      "active": true,
      "type": [ {
        "text": "CST"
      } ],
      "name": "Norfolk and Wisbech 111"
    }
  }, {
    "fullUrl": "urn:uuid:8d5be979-2f15-4ce4-89e4-edec26406021",
    "resource": {
      "resourceType": "Practitioner",
      "id": "8d5be979-2f15-4ce4-89e4-edec26406021",
      "active": true,
      "name": [ {
        "text": "Ben Smythson"
      } ]
    }
  }, {
    "fullUrl": "urn:uuid:aec55f46-20f9-4ac9-89e0-ecc2c35cffac",
    "resource": {
      "resourceType": "RelatedPerson",
      "id": "aec55f46-20f9-4ac9-89e0-ecc2c35cffac",
      "active": true,
      "patient": {
        "reference": "urn:uuid:7019e8cb-2b00-42cf-9c6f-6b360e115ddf"
      },
      "relationship": {
        "coding": [ {
          "system": "2.16.840.1.113883.2.1.3.2.4.16.45",
          "code": "21",
          "display": "Self"
        }, {
          "system": "http://hl7.org/fhir/v2/0131",
          "code": "C",
          "display": "Emergency Contact"
        } ]
      },
      "name": [ {
        "text": "Test Call TEST CALL DX07"
      } ],
      "telecom": [ {
        "system": "phone",
        "value": "tel:01233123123"
      } ],
      "gender": "unknown"
    }
  }, {
    "fullUrl": "urn:uuid:c2bb6364-0a48-4e30-940a-5ca5eddd0510",
    "resource": {
      "resourceType": "Location",
      "id": "c2bb6364-0a48-4e30-940a-5ca5eddd0510",
      "managingOrganization": {
        "reference": "urn:uuid:586877c4-7c6e-4572-9d91-486d1b1227b0"
      }
    }
  }, {
    "fullUrl": "urn:uuid:586877c4-7c6e-4572-9d91-486d1b1227b0",
    "resource": {
      "resourceType": "Organization",
      "id": "586877c4-7c6e-4572-9d91-486d1b1227b0",
      "identifier": [ {
        "value": "Z10000"
      } ],
      "type": [ {
        "text": "GP Practice"
      } ],
      "name": "UNKNOWN"
    }
  }, {
    "fullUrl": "urn:uuid:7e7e30f0-bc1a-490c-a8e6-9d23f32cfa7a",
    "resource": {
      "resourceType": "Location",
      "id": "7e7e30f0-bc1a-490c-a8e6-9d23f32cfa7a",
      "address": {
        "type": "physical",
        "line": [ "313 VICTORIA ROAD", "LOWESTOFT" ],
        "postalCode": "NR33 9LS"
      }
    }
  }, {
    "fullUrl": "urn:uuid:7019e8cb-2b00-42cf-9c6f-6b360e115ddf",
    "resource": {
      "resourceType": "Patient",
      "id": "7019e8cb-2b00-42cf-9c6f-6b360e115ddf",
      "language": "en",
      "active": true,
      "name": [ {
        "use": "official",
        "family": "TEST CALL DX07",
        "given": [ "Test Call" ]
      } ],
      "telecom": [ {
        "system": "phone",
        "value": "tel:01233123123"
      } ],
      "gender": "male",
      "birthDate": "1996-03-25",
      "address": [ {
        "use": "home",
        "line": [ "313 VICTORIA ROAD", "LOWESTOFT" ],
        "postalCode": "NR33 9LS"
      }, {
        "type": "physical",
        "line": [ "313 VICTORIA ROAD", "LOWESTOFT" ],
        "postalCode": "NR33 9LS"
      } ],
      "generalPractitioner": [ {
        "reference": "urn:uuid:a1b63dc4-bb5b-41a2-9291-7e5032547b40"
      } ]
    }
  }, {
    "fullUrl": "urn:uuid:a1b63dc4-bb5b-41a2-9291-7e5032547b40",
    "resource": {
      "resourceType": "Organization",
      "id": "a1b63dc4-bb5b-41a2-9291-7e5032547b40",
      "identifier": [ {
        "value": "Z10000"
      } ],
      "type": [ {
        "text": "GP Practice"
      } ],
      "name": "UNKNOWN"
    }
  }, {
    "fullUrl": "urn:uuid:ee944f83-3b83-4778-a0eb-33686b397145",
    "resource": {
      "resourceType": "HealthcareService",
      "id": "ee944f83-3b83-4778-a0eb-33686b397145",
      "active": true,
      "providedBy": {
        "reference": "urn:uuid:71372227-9683-4aff-95c4-4c383c0095f7"
      },
      "location": [ {
        "reference": "urn:uuid:29915200-ddaa-47d3-80e0-7fa595e1c38f"
      } ],
      "name": "Out of Hours GP Service (Waveney) - Kirkley Mill Health Centre, Lowestoft"
    }
  }, {
    "fullUrl": "urn:uuid:29915200-ddaa-47d3-80e0-7fa595e1c38f",
    "resource": {
      "resourceType": "Location",
      "id": "29915200-ddaa-47d3-80e0-7fa595e1c38f",
      "managingOrganization": {
        "reference": "urn:uuid:71372227-9683-4aff-95c4-4c383c0095f7"
      }
    }
  }, {
    "fullUrl": "urn:uuid:71372227-9683-4aff-95c4-4c383c0095f7",
    "resource": {
      "resourceType": "Organization",
      "id": "71372227-9683-4aff-95c4-4c383c0095f7",
      "identifier": [ {
        "value": "NVE06"
      } ],
      "type": [ {
        "coding": [ {
          "code": "PRCP",
          "display": "Out of Hours GP Service (Waveney) - Kirkley Mill Health Centre, Lowestoft"
        } ]
      } ],
      "name": "Out of Hours GP Service (Waveney) - Kirkley Mill Health Centre, Lowestoft"
    }
  }, {
    "fullUrl": "urn:uuid:0e5613b7-81ee-4da2-b073-0782e2554f4c",
    "resource": {
      "resourceType": "ReferralRequest",
      "id": "0e5613b7-81ee-4da2-b073-0782e2554f4c",
      "status": "active",
      "intent": "plan",
      "priority": "routine",
      "subject": {
        "reference": "urn:uuid:7019e8cb-2b00-42cf-9c6f-6b360e115ddf"
      },
      "context": {
        "reference": "urn:uuid:84bb5d07-8a89-4dbb-a857-678019f672e6"
      },
      "occurrencePeriod": {
        "start": "2021-10-11T06:41:51+00:00",
        "end": "2021-10-11T07:41:51+00:00"
      },
      "authoredOn": "2021-05-11T08:58:52+00:00",
      "requester": {
        "agent": {
          "reference": "urn:uuid:9b5e08a9-220a-4a8c-a708-2e7ccc155e9b"
        },
        "onBehalfOf": {
          "reference": "urn:uuid:a9447f5b-e442-473b-a2ca-13ae09f3df76"
        }
      },
      "recipient": [ {
        "reference": "urn:uuid:97baafd4-41a3-4364-8c3b-3ee036cf9af5"
      }, {
        "reference": "urn:uuid:ee944f83-3b83-4778-a0eb-33686b397145"
      } ],
      "reasonReference": [ {
        "reference": "urn:uuid:f417dd4b-e58f-4888-b90c-306a3f7027c1"
      } ],
      "supportingInfo": [ {
        "reference": "urn:uuid:6a636900-8998-46a3-af20-f9d60ebbf260"
      } ]
    }
  }, {
    "fullUrl": "urn:uuid:6a636900-8998-46a3-af20-f9d60ebbf260",
    "resource": {
      "resourceType": "ProcedureRequest",
      "id": "6a636900-8998-46a3-af20-f9d60ebbf260",
      "status": "active",
      "intent": "plan",
      "priority": "routine",
      "doNotPerform": false,
      "code": {
        "coding": [ {
          "system": "2.16.840.1.113883.2.1.3.2.4.17.325",
          "code": "Dx07",
          "display": "To contact a local service within 12 hours"
        } ]
      },
      "subject": {
        "reference": "urn:uuid:7019e8cb-2b00-42cf-9c6f-6b360e115ddf"
      },
      "occurrencePeriod": {
        "start": "2021-10-11T06:41:51+00:00",
        "end": "2021-10-11T07:41:51+00:00"
      },
      "reasonReference": [ {
        "reference": "urn:uuid:f417dd4b-e58f-4888-b90c-306a3f7027c1"
      } ]
    }
  }, {
    "fullUrl": "urn:uuid:97baafd4-41a3-4364-8c3b-3ee036cf9af5",
    "resource": {
      "resourceType": "Practitioner",
      "id": "97baafd4-41a3-4364-8c3b-3ee036cf9af5",
      "active": true,
      "telecom": [ {
        "system": "phone",
        "value": "tel:01233505450"
      } ],
      "address": [ {
        "type": "physical",
        "line": [ "Kingston House", "The Long Barrow", "Orbital Park", "Ashford", "Kent" ],
        "postalCode": "TN24 0GP"
      } ]
    }
  }, {
    "fullUrl": "urn:uuid:d6d70faf-e235-4e03-ba2d-de8cd5c82dbf",
    "resource": {
      "resourceType": "Composition",
      "id": "d6d70faf-e235-4e03-ba2d-de8cd5c82dbf",
      "identifier": {
        "use": "usual",
        "value": "B172BCF7-DD1C-4508-B781-6BE68ABD1F79"
      },
      "status": "final",
      "type": {
        "coding": [ {
          "system": "http://snomed.info/sct",
          "code": "371531000",
          "display": "Report of clinical encounter (record artifact)"
        } ]
      },
      "subject": {
        "reference": "urn:uuid:7019e8cb-2b00-42cf-9c6f-6b360e115ddf"
      },
      "encounter": {
        "reference": "urn:uuid:84bb5d07-8a89-4dbb-a857-678019f672e6"
      },
      "date": "2021-10-11T06:41:51+00:00",
      "author": [ {
        "reference": "urn:uuid:8d5be979-2f15-4ce4-89e4-edec26406021"
      } ],
      "title": "111 Report",
      "confidentiality": "R",
      "section": [ {
        "section": [ {
          "title": "Patient's Reported Condition",
          "text": {
            "status": "generated",
            "div": "<div xmlns=\"http://www.w3.org/1999/xhtml\">&lt;content&gt;&amp;lt;CLEO Ref: 2100310384&amp;gt; Test Call for Dx07.\n                                                        &lt;br/&gt;\n                                                    &lt;/content&gt;</div>"
          }
        }, {
          "title": "Pathways Disposition",
          "text": {
            "status": "generated",
            "div": "<div xmlns=\"http://www.w3.org/1999/xhtml\">&lt;content&gt;The individual needs to contact a local service within 12 hours. (Dx07)&lt;/content&gt;\n                                                    &lt;br/&gt;\n                                                    &lt;br/&gt;\n                                                    &lt;content&gt;Selected Service: 1335970392, Out of Hours GP Service (Waveney) - Kirkley Mill Health Centre, Lowestoft, 111&lt;/content&gt;\n                                                    &lt;br/&gt;</div>"
          }
        }, {
          "title": "Consultation Summary",
          "text": {
            "status": "generated",
            "div": "<div xmlns=\"http://www.w3.org/1999/xhtml\">&lt;content&gt;\n                                                        &lt;content&gt;Excessive thirst in last 4 weeks&lt;/content&gt;\n                                                        &lt;br/&gt;\n                                                        &lt;content&gt;Warm to touch&lt;/content&gt;\n                                                        &lt;br/&gt;\n                                                        &lt;content&gt;Illness - Test&lt;/content&gt;\n                                                        &lt;br/&gt;\n                                                    &lt;/content&gt;</div>"
          }
        }, {
          "title": "Pathways Assessment",
          "text": {
            "status": "generated",
            "div": "<div xmlns=\"http://www.w3.org/1999/xhtml\">&lt;content&gt;An injury or health problem was the reason for the contact.&lt;/content&gt;\n                                                    &lt;br/&gt;\n                                                    &lt;content&gt;Heavy bleeding had not occurred in the previous 2 hours.&lt;/content&gt;\n                                                    &lt;br/&gt;\n                                                    &lt;content&gt;An illness or health problem was the main problem. - Test&lt;/content&gt;\n                                                    &lt;br/&gt;\n                                                    &lt;content&gt;The individual was not fighting for breath.&lt;/content&gt;\n                                                    &lt;br/&gt;\n                                                    &lt;content&gt;The main reason for the assessment was not an allergic reaction, heart attack, chest/upper back pain, probable stroke, recent fit/seizure or suicide attempt.&lt;/content&gt;\n                                                    &lt;br/&gt;\n                                                    &lt;content&gt;The main reason for contact was not new confusion, declared diabetic hypo/hyperglycaemia, or ICD shock.&lt;/content&gt;\n                                                    &lt;br/&gt;\n                                                    &lt;content&gt;The skin on the torso felt normal, warm or hot.&lt;/content&gt;\n                                                    &lt;br/&gt;\n                                                    &lt;content&gt;There was no vomiting, diarrhoea, rectal bleeding, groin pain or groin swelling.&lt;/content&gt;\n                                                    &lt;br/&gt;\n                                                    &lt;content&gt;There was no new genital pain or swelling.&lt;/content&gt;\n                                                    &lt;br/&gt;\n                                                    &lt;content&gt;The individual was able to carry out most or all normal activities.&lt;/content&gt;\n                                                    &lt;br/&gt;\n                                                    &lt;content&gt;There was no crushing or severe aching chest, upper back or upper abdominal pain, or pain going to the arm, neck, jaw or shoulder.&lt;/content&gt;\n                                                    &lt;br/&gt;\n                                                    &lt;content&gt;The individual had not ingested a harmful or toxic substance.&lt;/content&gt;\n                                                    &lt;br/&gt;\n                                                    &lt;content&gt;There had been no black and tarry or red/maroon bowel motions.&lt;/content&gt;\n                                                    &lt;br/&gt;\n                                                    &lt;content&gt;There was no new or worsening confusion.&lt;/content&gt;\n                                                    &lt;br/&gt;\n                                                    &lt;content&gt;Breathing harder or faster when doing nothing was not described.&lt;/content&gt;\n                                                    &lt;br/&gt;\n                                                    &lt;content&gt;There was no new shoulder tip pain or pain in the lower right abdomen.&lt;/content&gt;\n                                                    &lt;br/&gt;\n                                                    &lt;content&gt;The individual did not use anticoagulant medication or have a bleeding/clotting disorder.&lt;/content&gt;\n                                                    &lt;br/&gt;\n                                                    &lt;content&gt;The individual had not been in constant pain for 4 hours or more.&lt;/content&gt;\n                                                    &lt;br/&gt;\n                                                    &lt;content&gt;The individual was not jaundiced.&lt;/content&gt;\n                                                    &lt;br/&gt;\n                                                    &lt;content&gt;The individual had experienced extreme thirst during the previous 4 weeks.&lt;/content&gt;\n                                                    &lt;br/&gt;</div>"
          }
        }, {
          "title": "Advice Given",
          "text": {
            "status": "generated",
            "div": "<div xmlns=\"http://www.w3.org/1999/xhtml\">&lt;content&gt;Unless advised not to, paracetamol may be used to relieve pain or fever. Follow the instructions in the pack. If in doubt ask a pharmacist.&lt;/content&gt;\n                                                    &lt;br/&gt;\n                                                    &lt;content&gt;Don't use ibuprofen or any other anti-inflammatory medication until you have spoken to a healthcare professional.&lt;/content&gt;\n                                                    &lt;br/&gt;\n                                                    &lt;content&gt;If there are any new symptoms, or if the condition gets worse, changes or you have any other concerns, call us back.&lt;/content&gt;\n                                                    &lt;br/&gt;\n                                                    &lt;content&gt;Remember to take a list of any current medications if you go to the out of hours surgery.&lt;/content&gt;\n                                                    &lt;br/&gt;</div>"
          }
        }, {
          "title": "SCR Consent",
          "text": {
            "status": "generated",
            "div": "<div xmlns=\"http://www.w3.org/1999/xhtml\">&lt;content&gt;Consent given for SCR sharing\n                                                        &lt;br/&gt;\n                                                        &lt;br/&gt;\n                                                    &lt;/content&gt;</div>"
          }
        } ]
      }, {
        "title": "ReferralRequest",
        "entry": [ {
          "reference": "urn:uuid:0e5613b7-81ee-4da2-b073-0782e2554f4c"
        } ]
      } ]
    }
  }, {
    "fullUrl": "urn:uuid:35ae1c81-8044-457b-82ba-242c40649192",
    "resource": {
      "resourceType": "Consent",
      "id": "35ae1c81-8044-457b-82ba-242c40649192",
      "identifier": {
        "use": "usual",
        "value": "B172BCF7-DD1C-4508-B781-6BE68ABD1F79"
      },
      "status": "active",
      "patient": {
        "reference": "urn:uuid:7019e8cb-2b00-42cf-9c6f-6b360e115ddf"
      },
      "period": {
        "start": "2021-05-11T08:58:52+00:00"
      },
      "consentingParty": [ {
        "reference": "urn:uuid:7019e8cb-2b00-42cf-9c6f-6b360e115ddf"
      } ],
      "action": [ {
        "coding": [ {
          "system": "http://snomed.info/sct",
          "code": "425691002",
          "display": "Consent given for electronic record sharing"
        } ],
        "text": "Consent given for electronic record sharing"
      } ],
      "organization": [ {
        "reference": "urn:uuid:a9447f5b-e442-473b-a2ca-13ae09f3df76"
      } ],
      "policyRule": "http://hl7.org/fhir/ConsentPolicy/opt-out",
      "data": [ {
        "meaning": "related",
        "reference": {
          "reference": "urn:uuid:84bb5d07-8a89-4dbb-a857-678019f672e6"
        }
      } ]
    }
  }, {
    "fullUrl": "urn:uuid:f417dd4b-e58f-4888-b90c-306a3f7027c1",
    "resource": {
      "resourceType": "Condition",
      "id": "f417dd4b-e58f-4888-b90c-306a3f7027c1",
      "clinicalStatus": "active",
      "verificationStatus": "unknown",
      "subject": {
        "reference": "urn:uuid:7019e8cb-2b00-42cf-9c6f-6b360e115ddf"
      },
      "context": {
        "reference": "urn:uuid:84bb5d07-8a89-4dbb-a857-678019f672e6"
      }
    }
  }, {
    "fullUrl": "urn:uuid:3f96dbe6-e99a-4d46-99b4-340309225b69",
    "resource": {
      "resourceType": "Observation",
      "id": "3f96dbe6-e99a-4d46-99b4-340309225b69",
      "status": "final",
      "code": {
        "coding": [ {
          "system": "http://snomed.info/sct",
          "code": "33962009",
          "display": "Presenting complaint"
        } ]
      },
      "subject": {
        "reference": "urn:uuid:7019e8cb-2b00-42cf-9c6f-6b360e115ddf"
      },
      "context": {
        "reference": "urn:uuid:84bb5d07-8a89-4dbb-a857-678019f672e6"
      },
      "valueString": "<CLEO Ref: 2100310384> Test Call for Dx07.\n                                                        "
    }
  }, {
    "fullUrl": "urn:uuid:66f86f78-b41f-49ab-b2be-ca266f5c6620",
    "resource": {
      "resourceType": "PractitionerRole",
      "id": "66f86f78-b41f-49ab-b2be-ca266f5c6620",
      "practitioner": {
        "reference": "urn:uuid:8d5be979-2f15-4ce4-89e4-edec26406021"
      },
      "organization": {
        "reference": "urn:uuid:72ae3954-2563-4be0-b7f3-3d8e33945f5a"
      },
      "code": [ {
        "coding": [ {
          "system": "2.16.840.1.113883.2.1.3.2.4.17.196",
          "code": "NR1690",
          "display": "Call Operator"
        } ]
      } ]
    }
  }, {
    "fullUrl": "urn:uuid:72ae3954-2563-4be0-b7f3-3d8e33945f5a",
    "resource": {
      "resourceType": "Organization",
      "id": "72ae3954-2563-4be0-b7f3-3d8e33945f5a",
      "identifier": [ {
        "value": "NTN08"
      } ],
      "name": "Norfolk and Wisbech 111"
    }
  }, {
    "fullUrl": "urn:uuid:c1a3442a-8242-41b7-8210-60b0557a2128",
    "resource": {
      "resourceType": "RelatedPerson",
      "id": "c1a3442a-8242-41b7-8210-60b0557a2128",
      "patient": {
        "reference": "urn:uuid:7019e8cb-2b00-42cf-9c6f-6b360e115ddf"
      },
      "relationship": {
        "coding": [ {
          "system": "http://hl7.org/fhir/v2/0131",
          "code": "C",
          "display": "Emergency Contact"
        } ]
      },
      "telecom": [ {
        "system": "phone",
        "value": "tel:01233123123"
      } ]
    }
  }, {
    "fullUrl": "urn:uuid:9b5e08a9-220a-4a8c-a708-2e7ccc155e9b",
    "resource": {
      "resourceType": "Device",
      "id": "9b5e08a9-220a-4a8c-a708-2e7ccc155e9b",
      "model": "111 Adaptor",
      "version": "1.0.0"
    }
  }, {
    "fullUrl": "urn:uuid:d191c2a9-7fe4-43b0-b7c0-66c5c6354836",
    "resource": {
      "resourceType": "List",
      "id": "d191c2a9-7fe4-43b0-b7c0-66c5c6354836",
      "status": "current",
      "mode": "working",
      "title": "111 Report List",
      "code": {
        "coding": [ {
          "system": "http://snomed.info/sct",
          "code": "225390008",
          "display": "Triage"
        } ]
      },
      "subject": {
        "reference": "urn:uuid:7019e8cb-2b00-42cf-9c6f-6b360e115ddf"
      },
      "encounter": {
        "reference": "urn:uuid:84bb5d07-8a89-4dbb-a857-678019f672e6"
      },
      "date": "2021-10-11T06:41:51+00:00",
      "source": {
        "reference": "urn:uuid:9b5e08a9-220a-4a8c-a708-2e7ccc155e9b"
      },
      "orderedBy": {
        "coding": [ {
          "system": "http://hl7.org/fhir/list-order",
          "code": "event-date",
          "display": "Sorted by Event Date"
        } ]
      },
      "entry": [ {
        "item": {
          "reference": "urn:uuid:586877c4-7c6e-4572-9d91-486d1b1227b0"
        }
      }, {
        "item": {
          "reference": "urn:uuid:97baafd4-41a3-4364-8c3b-3ee036cf9af5"
        }
      }, {
        "item": {
          "reference": "urn:uuid:72ae3954-2563-4be0-b7f3-3d8e33945f5a"
        }
      }, {
        "item": {
          "reference": "urn:uuid:a1b63dc4-bb5b-41a2-9291-7e5032547b40"
        }
      }, {
        "item": {
          "reference": "urn:uuid:f417dd4b-e58f-4888-b90c-306a3f7027c1"
        }
      }, {
        "item": {
          "reference": "urn:uuid:3f96dbe6-e99a-4d46-99b4-340309225b69"
        }
      }, {
        "item": {
          "reference": "urn:uuid:71372227-9683-4aff-95c4-4c383c0095f7"
        }
      }, {
        "item": {
          "reference": "urn:uuid:c1a3442a-8242-41b7-8210-60b0557a2128"
        }
      }, {
        "item": {
          "reference": "urn:uuid:aec55f46-20f9-4ac9-89e0-ecc2c35cffac"
        }
      }, {
        "item": {
          "reference": "urn:uuid:a9447f5b-e442-473b-a2ca-13ae09f3df76"
        }
      }, {
        "item": {
          "reference": "urn:uuid:8d5be979-2f15-4ce4-89e4-edec26406021"
        }
      }, {
        "item": {
          "reference": "urn:uuid:0e5613b7-81ee-4da2-b073-0782e2554f4c"
        }
      } ]
    }
  } ]
}