{
  "resourceType": "Bundle",
  "identifier": {
    "type": {
      "text": "ClinicalDocument VersionNumber"
    },
    "value": "1"
  },
  "type": "message",
  "entry": [ {
    "fullUrl": "urn:uuid:D78E4686-5082-4E76-9359-6A84AE0C9C10",
    "resource": {
      "resourceType": "MessageHeader",
      "id": "D78E4686-5082-4E76-9359-6A84AE0C9C10",
      "event": {
        "system": "https://fhir.nhs.uk/STU3/CodeSystem/EventType-1",
        "code": "referral-1",
        "display": "Referral"
      },
      "destination": [ {
        "endpoint": "urn:nhs-uk:addressing:ods:NVE06:DOSServiceID:1335970392"
      } ],
      "timestamp": "2021-05-11T08:53:28.000+00:00",
      "source": {
        "name": "NHS 111 Adaptor",
        "endpoint": "http://localhost:8080/report"
      },
      "reason": {
        "coding": [ {
          "system": "urn:nhs-itk:ns:201005:interaction",
          "code": "urn:nhs-itk:interaction:primaryOutofHourRecipientNHS111CDADocument-v2-0"
        } ]
      }
    }
  }, {
    "fullUrl": "urn:uuid:67442acf-1c26-4935-9c47-386a020aaf05",
    "resource": {
      "resourceType": "Encounter",
      "id": "67442acf-1c26-4935-9c47-386a020aaf05",
      "identifier": [ {
        "system": "2.16.840.1.113883.2.1.3.2.4.18.34",
        "value": "0060E06D-C899-440E-B58E-B5522662EC28"
      }, {
        "system": "2.16.840.1.113883.2.1.3.2.4.18.35",
        "value": "2100310382"
      } ],
      "status": "finished",
      "type": [ {
        "text": "111 Encounter Referral"
      } ],
      "subject": {
        "reference": "urn:uuid:26c77205-a82e-4022-9009-6eb55239a1f3"
      },
      "participant": [ {
        "type": [ {
          "coding": [ {
            "system": "http://hl7.org/fhir/ValueSet/encounter-participant-type",
            "code": "PPRF",
            "display": "Author"
          } ]
        } ],
        "individual": {
          "reference": "urn:uuid:04482ddf-f69b-4d49-977c-21c556b8f21b"
        }
      }, {
        "type": [ {
          "text": "Informant"
        } ],
        "individual": {
          "reference": "urn:uuid:a81a27f2-87a6-4117-80db-f49be202fc9c"
        }
      } ],
      "period": {
        "start": "2021-05-11T08:53:28+00:00"
      },
      "location": [ {
        "location": {
          "reference": "urn:uuid:4d7fc75a-9868-49c8-8f1f-1340d3832d22"
        },
        "status": "active"
      }, {
        "location": {
          "reference": "urn:uuid:6826d951-f490-4e00-8a7e-c329a7e14205"
        },
        "status": "completed"
      } ],
      "serviceProvider": {
        "reference": "urn:uuid:bcb7469d-de26-4427-8f9b-69eb6a4adcd6"
      }
    }
  }, {
    "fullUrl": "urn:uuid:bcb7469d-de26-4427-8f9b-69eb6a4adcd6",
    "resource": {
      "resourceType": "Organization",
      "id": "bcb7469d-de26-4427-8f9b-69eb6a4adcd6",
      "active": true,
      "type": [ {
        "text": "CST"
      } ],
      "name": "Norfolk and Wisbech 111"
    }
  }, {
    "fullUrl": "urn:uuid:04482ddf-f69b-4d49-977c-21c556b8f21b",
    "resource": {
      "resourceType": "Practitioner",
      "id": "04482ddf-f69b-4d49-977c-21c556b8f21b",
      "active": true,
      "name": [ {
        "text": "Ben Smythson"
      } ]
    }
  }, {
    "fullUrl": "urn:uuid:a81a27f2-87a6-4117-80db-f49be202fc9c",
    "resource": {
      "resourceType": "RelatedPerson",
      "id": "a81a27f2-87a6-4117-80db-f49be202fc9c",
      "active": true,
      "patient": {
        "reference": "urn:uuid:26c77205-a82e-4022-9009-6eb55239a1f3"
      },
      "relationship": {
        "coding": [ {
          "system": "2.16.840.1.113883.2.1.3.2.4.16.45",
          "code": "21",
          "display": "Self"
        }, {
          "system": "http://hl7.org/fhir/v2/0131",
          "code": "C",
          "display": "Emergency Contact"
        } ]
      },
      "name": [ {
        "text": "Test Call TEST CALL DX06"
      } ],
      "telecom": [ {
        "system": "phone",
        "value": "tel:01233123123"
      } ],
      "gender": "unknown"
    }
  }, {
    "fullUrl": "urn:uuid:4d7fc75a-9868-49c8-8f1f-1340d3832d22",
    "resource": {
      "resourceType": "Location",
      "id": "4d7fc75a-9868-49c8-8f1f-1340d3832d22",
      "managingOrganization": {
        "reference": "urn:uuid:fc4a6cb2-2e7f-42db-ac66-67374dbc5f76"
      }
    }
  }, {
    "fullUrl": "urn:uuid:fc4a6cb2-2e7f-42db-ac66-67374dbc5f76",
    "resource": {
      "resourceType": "Organization",
      "id": "fc4a6cb2-2e7f-42db-ac66-67374dbc5f76",
      "identifier": [ {
        "value": "Z10000"
      } ],
      "type": [ {
        "text": "GP Practice"
      } ],
      "name": "UNKNOWN"
    }
  }, {
    "fullUrl": "urn:uuid:6826d951-f490-4e00-8a7e-c329a7e14205",
    "resource": {
      "resourceType": "Location",
      "id": "6826d951-f490-4e00-8a7e-c329a7e14205",
      "address": {
        "type": "physical",
        "line": [ "313 VICTORIA ROAD", "LOWESTOFT" ],
        "postalCode": "NR33 9LS"
      }
    }
  }, {
    "fullUrl": "urn:uuid:26c77205-a82e-4022-9009-6eb55239a1f3",
    "resource": {
      "resourceType": "Patient",
      "id": "26c77205-a82e-4022-9009-6eb55239a1f3",
      "language": "en",
      "active": true,
      "name": [ {
        "use": "official",
        "family": "TEST CALL DX06",
        "given": [ "Test Call" ]
      } ],
      "telecom": [ {
        "system": "phone",
        "value": "tel:01233123123"
      } ],
      "gender": "male",
      "birthDate": "1996-03-25",
      "address": [ {
        "use": "home",
        "line": [ "313 VICTORIA ROAD", "LOWESTOFT" ],
        "postalCode": "NR33 9LS"
      }, {
        "type": "physical",
        "line": [ "313 VICTORIA ROAD", "LOWESTOFT" ],
        "postalCode": "NR33 9LS"
      } ],
      "generalPractitioner": [ {
        "reference": "urn:uuid:86de6b5b-cf61-433e-8313-e31b7ed611dc"
      } ]
    }
  }, {
    "fullUrl": "urn:uuid:86de6b5b-cf61-433e-8313-e31b7ed611dc",
    "resource": {
      "resourceType": "Organization",
      "id": "86de6b5b-cf61-433e-8313-e31b7ed611dc",
      "identifier": [ {
        "value": "Z10000"
      } ],
      "type": [ {
        "text": "GP Practice"
      } ],
      "name": "UNKNOWN"
    }
  }, {
    "fullUrl": "urn:uuid:b478284a-72c0-45b7-a641-182673448aa7",
    "resource": {
      "resourceType": "HealthcareService",
      "id": "b478284a-72c0-45b7-a641-182673448aa7",
      "active": true,
      "providedBy": {
        "reference": "urn:uuid:24ed29bf-90e5-4749-a8fd-b49103d58f57"
      },
      "location": [ {
        "reference": "urn:uuid:450aad6d-1f37-448e-81ae-025ca879d06f"
      } ],
      "name": "Out of Hours GP Service (Waveney) - Kirkley Mill Health Centre, Lowestoft"
    }
  }, {
    "fullUrl": "urn:uuid:450aad6d-1f37-448e-81ae-025ca879d06f",
    "resource": {
      "resourceType": "Location",
      "id": "450aad6d-1f37-448e-81ae-025ca879d06f",
      "managingOrganization": {
        "reference": "urn:uuid:24ed29bf-90e5-4749-a8fd-b49103d58f57"
      }
    }
  }, {
    "fullUrl": "urn:uuid:24ed29bf-90e5-4749-a8fd-b49103d58f57",
    "resource": {
      "resourceType": "Organization",
      "id": "24ed29bf-90e5-4749-a8fd-b49103d58f57",
      "identifier": [ {
        "value": "NVE06"
      } ],
      "type": [ {
        "coding": [ {
          "code": "PRCP",
          "display": "Out of Hours GP Service (Waveney) - Kirkley Mill Health Centre, Lowestoft"
        } ]
      } ],
      "name": "Out of Hours GP Service (Waveney) - Kirkley Mill Health Centre, Lowestoft"
    }
  }, {
    "fullUrl": "urn:uuid:90f16646-4752-49f3-a5ef-d5312e0572d5",
    "resource": {
      "resourceType": "ReferralRequest",
      "id": "90f16646-4752-49f3-a5ef-d5312e0572d5",
      "status": "active",
      "intent": "plan",
      "priority": "routine",
      "subject": {
        "reference": "urn:uuid:26c77205-a82e-4022-9009-6eb55239a1f3"
      },
      "context": {
        "reference": "urn:uuid:67442acf-1c26-4935-9c47-386a020aaf05"
      },
      "occurrencePeriod": {
        "start": "2021-10-01T07:34:03+00:00",
        "end": "2021-10-01T08:34:03+00:00"
      },
      "authoredOn": "2021-05-11T08:53:28+00:00",
      "requester": {
        "agent": {
          "reference": "urn:uuid:1b0f8bd2-da65-4566-881b-2378a3d2cd36"
        },
        "onBehalfOf": {
          "reference": "urn:uuid:bcb7469d-de26-4427-8f9b-69eb6a4adcd6"
        }
      },
      "recipient": [ {
        "reference": "urn:uuid:3fcc3149-9e16-4727-a053-baba8a0975a5"
      }, {
        "reference": "urn:uuid:b478284a-72c0-45b7-a641-182673448aa7"
      } ],
      "reasonReference": [ {
        "reference": "urn:uuid:b58046d3-e429-47b7-9e69-5d0ac97d2378"
      } ],
      "supportingInfo": [ {
        "reference": "urn:uuid:95501f47-c329-4541-861c-613a3c7a5d3b"
      } ]
    }
  }, {
    "fullUrl": "urn:uuid:95501f47-c329-4541-861c-613a3c7a5d3b",
    "resource": {
      "resourceType": "ProcedureRequest",
      "id": "95501f47-c329-4541-861c-613a3c7a5d3b",
      "status": "active",
      "intent": "plan",
      "priority": "routine",
      "doNotPerform": false,
      "code": {
        "coding": [ {
          "system": "2.16.840.1.113883.2.1.3.2.4.17.325",
          "code": "Dx06",
          "display": "To contact a local service within 6 hours"
        } ]
      },
      "subject": {
        "reference": "urn:uuid:26c77205-a82e-4022-9009-6eb55239a1f3"
      },
      "occurrencePeriod": {
        "start": "2021-10-01T07:34:03+00:00",
        "end": "2021-10-01T08:34:03+00:00"
      },
      "reasonReference": [ {
        "reference": "urn:uuid:b58046d3-e429-47b7-9e69-5d0ac97d2378"
      } ]
    }
  }, {
    "fullUrl": "urn:uuid:3fcc3149-9e16-4727-a053-baba8a0975a5",
    "resource": {
      "resourceType": "Practitioner",
      "id": "3fcc3149-9e16-4727-a053-baba8a0975a5",
      "active": true,
      "telecom": [ {
        "system": "phone",
        "value": "tel:01233505450"
      } ],
      "address": [ {
        "type": "physical",
        "line": [ "Kingston House", "The Long Barrow", "Orbital Park", "Ashford", "Kent" ],
        "postalCode": "TN24 0GP"
      } ]
    }
  }, {
    "fullUrl": "urn:uuid:9c176998-d5ab-4499-a9c3-4bec14f82d6c",
    "resource": {
      "resourceType": "Composition",
      "id": "9c176998-d5ab-4499-a9c3-4bec14f82d6c",
      "identifier": {
        "use": "usual",
        "value": "192F7989-BE74-4F5C-AA94-FC0778DAC8AA"
      },
      "status": "final",
      "type": {
        "coding": [ {
          "system": "http://snomed.info/sct",
          "code": "371531000",
          "display": "Report of clinical encounter (record artifact)"
        } ]
      },
      "subject": {
        "reference": "urn:uuid:26c77205-a82e-4022-9009-6eb55239a1f3"
      },
      "encounter": {
        "reference": "urn:uuid:67442acf-1c26-4935-9c47-386a020aaf05"
      },
      "date": "2021-10-01T07:34:03+00:00",
      "author": [ {
        "reference": "urn:uuid:04482ddf-f69b-4d49-977c-21c556b8f21b"
      } ],
      "title": "111 Report",
      "confidentiality": "R",
      "section": [ {
        "section": [ {
          "title": "Patient's Reported Condition",
          "text": {
            "status": "generated",
            "div": "<div xmlns=\"http://www.w3.org/1999/xhtml\">&lt;content&gt;&amp;lt;CLEO Ref: 2100310382&amp;gt; Test Call for DX06.\n                                                        &lt;br/&gt;\n                                                    &lt;/content&gt;</div>"
          }
        }, {
          "title": "Pathways Disposition",
          "text": {
            "status": "generated",
            "div": "<div xmlns=\"http://www.w3.org/1999/xhtml\">&lt;content&gt;The individual needs to contact a local service within 6 hours. (Dx06)&lt;/content&gt;\n                                                    &lt;br/&gt;\n                                                    &lt;br/&gt;\n                                                    &lt;content&gt;Selected Service: 1335970392, Out of Hours GP Service (Waveney) - Kirkley Mill Health Centre, Lowestoft, 111&lt;/content&gt;\n                                                    &lt;br/&gt;</div>"
          }
        }, {
          "title": "Consultation Summary",
          "text": {
            "status": "generated",
            "div": "<div xmlns=\"http://www.w3.org/1999/xhtml\">&lt;content&gt;\n                                                        &lt;content&gt;Constant pain for more than 4 hours&lt;/content&gt;\n                                                        &lt;br/&gt;\n                                                        &lt;content&gt;Warm to touch&lt;/content&gt;\n                                                        &lt;br/&gt;\n                                                        &lt;content&gt;Illness - Test&lt;/content&gt;\n                                                        &lt;br/&gt;\n                                                    &lt;/content&gt;</div>"
          }
        }, {
          "title": "Pathways Assessment",
          "text": {
            "status": "generated",
            "div": "<div xmlns=\"http://www.w3.org/1999/xhtml\">&lt;content&gt;An injury or health problem was the reason for the contact.&lt;/content&gt;\n                                                    &lt;br/&gt;\n                                                    &lt;content&gt;Heavy bleeding had not occurred in the previous 2 hours.&lt;/content&gt;\n                                                    &lt;br/&gt;\n                                                    &lt;content&gt;An illness or health problem was the main problem. - Test&lt;/content&gt;\n                                                    &lt;br/&gt;\n                                                    &lt;content&gt;The individual was not fighting for breath.&lt;/content&gt;\n                                                    &lt;br/&gt;\n                                                    &lt;content&gt;The main reason for the assessment was not an allergic reaction, heart attack, chest/upper back pain, probable stroke, recent fit/seizure or suicide attempt.&lt;/content&gt;\n                                                    &lt;br/&gt;\n                                                    &lt;content&gt;The main reason for contact was not new confusion, declared diabetic hypo/hyperglycaemia, or ICD shock.&lt;/content&gt;\n                                                    &lt;br/&gt;\n                                                    &lt;content&gt;The skin on the torso felt normal, warm or hot.&lt;/content&gt;\n                                                    &lt;br/&gt;\n                                                    &lt;content&gt;There was no vomiting, diarrhoea, rectal bleeding, groin pain or groin swelling.&lt;/content&gt;\n                                                    &lt;br/&gt;\n                                                    &lt;content&gt;There was no new genital pain or swelling.&lt;/content&gt;\n                                                    &lt;br/&gt;\n                                                    &lt;content&gt;The individual was able to carry out most or all normal activities.&lt;/content&gt;\n                                                    &lt;br/&gt;\n                                                    &lt;content&gt;There was no crushing or severe aching chest, upper back or upper abdominal pain, or pain going to the arm, neck, jaw or shoulder.&lt;/content&gt;\n                                                    &lt;br/&gt;\n                                                    &lt;content&gt;The individual had not ingested a harmful or toxic substance.&lt;/content&gt;\n                                                    &lt;br/&gt;\n                                                    &lt;content&gt;There had been no black and tarry or red/maroon bowel motions.&lt;/content&gt;\n                                                    &lt;br/&gt;\n                                                    &lt;content&gt;There was no new or worsening confusion.&lt;/content&gt;\n                                                    &lt;br/&gt;\n                                                    &lt;content&gt;Breathing harder or faster when doing nothing was not described.&lt;/content&gt;\n                                                    &lt;br/&gt;\n                                                    &lt;content&gt;There was no new shoulder tip pain or pain in the lower right abdomen.&lt;/content&gt;\n                                                    &lt;br/&gt;\n                                                    &lt;content&gt;The individual did not use anticoagulant medication or have a bleeding/clotting disorder.&lt;/content&gt;\n                                                    &lt;br/&gt;\n                                                    &lt;content&gt;There was constant pain for 4 hours or more.&lt;/content&gt;\n                                                    &lt;br/&gt;</div>"
          }
        }, {
          "title": "Advice Given",
          "text": {
            "status": "generated",
            "div": "<div xmlns=\"http://www.w3.org/1999/xhtml\">&lt;content&gt;Unless advised not to, paracetamol may be used to relieve pain or fever. Follow the instructions in the pack. If in doubt ask a pharmacist.&lt;/content&gt;\n                                                    &lt;br/&gt;\n                                                    &lt;content&gt;Don't use ibuprofen or any other anti-inflammatory medication until you have spoken to a healthcare professional.&lt;/content&gt;\n                                                    &lt;br/&gt;\n                                                    &lt;content&gt;If there are any new symptoms, or if the condition gets worse, changes or you have any other concerns, call us back.&lt;/content&gt;\n                                                    &lt;br/&gt;\n                                                    &lt;content&gt;Remember to take a list of any current medications if you go to the out of hours surgery.&lt;/content&gt;\n                                                    &lt;br/&gt;</div>"
          }
        }, {
          "title": "SCR Consent",
          "text": {
            "status": "generated",
            "div": "<div xmlns=\"http://www.w3.org/1999/xhtml\">&lt;content&gt;Consent given for SCR sharing\n                                                        &lt;br/&gt;\n                                                        &lt;br/&gt;\n                                                    &lt;/content&gt;</div>"
          }
        } ]
      }, {
        "title": "ReferralRequest",
        "entry": [ {
          "reference": "urn:uuid:90f16646-4752-49f3-a5ef-d5312e0572d5"
        } ]
      } ]
    }
  }, {
    "fullUrl": "urn:uuid:d88a4d60-4c14-4368-8543-f88be3acd2b5",
    "resource": {
      "resourceType": "Consent",
      "id": "d88a4d60-4c14-4368-8543-f88be3acd2b5",
      "identifier": {
        "use": "usual",
        "value": "192F7989-BE74-4F5C-AA94-FC0778DAC8AA"
      },
      "status": "active",
      "patient": {
        "reference": "urn:uuid:26c77205-a82e-4022-9009-6eb55239a1f3"
      },
      "period": {
        "start": "2021-05-11T08:53:28+00:00"
      },
      "consentingParty": [ {
        "reference": "urn:uuid:26c77205-a82e-4022-9009-6eb55239a1f3"
      } ],
      "action": [ {
        "coding": [ {
          "system": "http://snomed.info/sct",
          "code": "425691002",
          "display": "Consent given for electronic record sharing"
        } ],
        "text": "Consent given for electronic record sharing"
      } ],
      "organization": [ {
        "reference": "urn:uuid:bcb7469d-de26-4427-8f9b-69eb6a4adcd6"
      } ],
      "policyRule": "http://hl7.org/fhir/ConsentPolicy/opt-out",
      "data": [ {
        "meaning": "related",
        "reference": {
          "reference": "urn:uuid:67442acf-1c26-4935-9c47-386a020aaf05"
        }
      } ]
    }
  }, {
    "fullUrl": "urn:uuid:b58046d3-e429-47b7-9e69-5d0ac97d2378",
    "resource": {
      "resourceType": "Condition",
      "id": "b58046d3-e429-47b7-9e69-5d0ac97d2378",
      "clinicalStatus": "active",
      "verificationStatus": "unknown",
      "subject": {
        "reference": "urn:uuid:26c77205-a82e-4022-9009-6eb55239a1f3"
      },
      "context": {
        "reference": "urn:uuid:67442acf-1c26-4935-9c47-386a020aaf05"
      }
    }
  }, {
    "fullUrl": "urn:uuid:00f11c18-857a-400f-9f9a-e8b8da137ebb",
    "resource": {
      "resourceType": "Observation",
      "id": "00f11c18-857a-400f-9f9a-e8b8da137ebb",
      "status": "final",
      "code": {
        "coding": [ {
          "system": "http://snomed.info/sct",
          "code": "33962009",
          "display": "Presenting complaint"
        } ]
      },
      "subject": {
        "reference": "urn:uuid:26c77205-a82e-4022-9009-6eb55239a1f3"
      },
      "context": {
        "reference": "urn:uuid:67442acf-1c26-4935-9c47-386a020aaf05"
      },
      "valueString": "<CLEO Ref: 2100310382> Test Call for DX06.\n                                                        "
    }
  }, {
    "fullUrl": "urn:uuid:bf410d68-6bb6-4841-b575-2be8910f6b09",
    "resource": {
      "resourceType": "PractitionerRole",
      "id": "bf410d68-6bb6-4841-b575-2be8910f6b09",
      "practitioner": {
        "reference": "urn:uuid:04482ddf-f69b-4d49-977c-21c556b8f21b"
      },
      "organization": {
        "reference": "urn:uuid:60ab373a-8df8-4329-9ef3-a2c2be6c46a6"
      },
      "code": [ {
        "coding": [ {
          "system": "2.16.840.1.113883.2.1.3.2.4.17.196",
          "code": "NR1690",
          "display": "Call Operator"
        } ]
      } ]
    }
  }, {
    "fullUrl": "urn:uuid:60ab373a-8df8-4329-9ef3-a2c2be6c46a6",
    "resource": {
      "resourceType": "Organization",
      "id": "60ab373a-8df8-4329-9ef3-a2c2be6c46a6",
      "identifier": [ {
        "value": "NTN08"
      } ],
      "name": "Norfolk and Wisbech 111"
    }
  }, {
    "fullUrl": "urn:uuid:b7bced20-db07-43d2-96c0-61b33944e97e",
    "resource": {
      "resourceType": "RelatedPerson",
      "id": "b7bced20-db07-43d2-96c0-61b33944e97e",
      "patient": {
        "reference": "urn:uuid:26c77205-a82e-4022-9009-6eb55239a1f3"
      },
      "relationship": {
        "coding": [ {
          "system": "http://hl7.org/fhir/v2/0131",
          "code": "C",
          "display": "Emergency Contact"
        } ]
      },
      "telecom": [ {
        "system": "phone",
        "value": "tel:01233123123"
      } ]
    }
  }, {
    "fullUrl": "urn:uuid:1b0f8bd2-da65-4566-881b-2378a3d2cd36",
    "resource": {
      "resourceType": "Device",
      "id": "1b0f8bd2-da65-4566-881b-2378a3d2cd36",
      "model": "111 Adaptor",
      "version": "0.11.0"
    }
  }, {
    "fullUrl": "urn:uuid:be8cf91f-946d-4ec0-88b6-92ad2754cd4b",
    "resource": {
      "resourceType": "List",
      "id": "be8cf91f-946d-4ec0-88b6-92ad2754cd4b",
      "status": "current",
      "mode": "working",
      "title": "111 Report List",
      "code": {
        "coding": [ {
          "system": "http://snomed.info/sct",
          "code": "225390008",
          "display": "Triage"
        } ]
      },
      "subject": {
        "reference": "urn:uuid:26c77205-a82e-4022-9009-6eb55239a1f3"
      },
      "encounter": {
        "reference": "urn:uuid:67442acf-1c26-4935-9c47-386a020aaf05"
      },
      "date": "2021-10-01T07:34:03+00:00",
      "source": {
        "reference": "urn:uuid:1b0f8bd2-da65-4566-881b-2378a3d2cd36"
      },
      "orderedBy": {
        "coding": [ {
          "system": "http://hl7.org/fhir/list-order",
          "code": "event-date",
          "display": "Sorted by Event Date"
        } ]
      },
      "entry": [ {
        "item": {
          "reference": "urn:uuid:a81a27f2-87a6-4117-80db-f49be202fc9c"
        }
      }, {
        "item": {
          "reference": "urn:uuid:24ed29bf-90e5-4749-a8fd-b49103d58f57"
        }
      }, {
        "item": {
          "reference": "urn:uuid:04482ddf-f69b-4d49-977c-21c556b8f21b"
        }
      }, {
        "item": {
          "reference": "urn:uuid:fc4a6cb2-2e7f-42db-ac66-67374dbc5f76"
        }
      }, {
        "item": {
          "reference": "urn:uuid:3fcc3149-9e16-4727-a053-baba8a0975a5"
        }
      }, {
        "item": {
          "reference": "urn:uuid:86de6b5b-cf61-433e-8313-e31b7ed611dc"
        }
      }, {
        "item": {
          "reference": "urn:uuid:60ab373a-8df8-4329-9ef3-a2c2be6c46a6"
        }
      }, {
        "item": {
          "reference": "urn:uuid:b58046d3-e429-47b7-9e69-5d0ac97d2378"
        }
      }, {
        "item": {
          "reference": "urn:uuid:b7bced20-db07-43d2-96c0-61b33944e97e"
        }
      }, {
        "item": {
          "reference": "urn:uuid:00f11c18-857a-400f-9f9a-e8b8da137ebb"
        }
      }, {
        "item": {
          "reference": "urn:uuid:bcb7469d-de26-4427-8f9b-69eb6a4adcd6"
        }
      }, {
        "item": {
          "reference": "urn:uuid:90f16646-4752-49f3-a5ef-d5312e0572d5"
        }
      } ]
    }
  } ]
}