{
  "resourceType": "Bundle",
  "identifier": {
    "type": {
      "text": "ClinicalDocument VersionNumber"
    },
    "value": "1"
  },
  "type": "message",
  "entry": [ {
    "fullUrl": "urn:uuid:4A4DE551-F585-49BB-A1D3-12DCC764AF52",
    "resource": {
      "resourceType": "MessageHeader",
      "id": "4A4DE551-F585-49BB-A1D3-12DCC764AF52",
      "event": {
        "system": "https://fhir.nhs.uk/STU3/CodeSystem/EventType-1",
        "code": "referral-1",
        "display": "Referral"
      },
      "destination": [ {
        "endpoint": "urn:nhs-uk:addressing:ods:NVE06:DOSServiceID:1335970392"
      } ],
      "timestamp": "2021-05-11T08:58:52.000+00:00",
      "source": {
        "name": "NHS 111 Adaptor",
        "endpoint": "http://localhost:8080/report"
      },
      "reason": {
        "coding": [ {
          "system": "urn:nhs-itk:ns:201005:interaction",
          "code": "urn:nhs-itk:interaction:primaryOutofHourRecipientNHS111CDADocument-v2-0"
        } ]
      }
    }
  }, {
    "fullUrl": "urn:uuid:988cc9c2-05f8-4302-bc16-83b3328a4a24",
    "resource": {
      "resourceType": "Encounter",
      "id": "988cc9c2-05f8-4302-bc16-83b3328a4a24",
      "identifier": [ {
        "system": "2.16.840.1.113883.2.1.3.2.4.18.34",
        "value": "D21E3785-658E-4B35-A8B2-2E59906B8983"
      }, {
        "system": "2.16.840.1.113883.2.1.3.2.4.18.35",
        "value": "2100310384"
      } ],
      "status": "finished",
      "type": [ {
        "text": "111 Encounter Referral"
      } ],
      "subject": {
        "reference": "urn:uuid:ca15ce9e-b0be-45b1-b59d-7569ebb201f3"
      },
      "participant": [ {
        "type": [ {
          "coding": [ {
            "system": "http://hl7.org/fhir/ValueSet/encounter-participant-type",
            "code": "PPRF",
            "display": "Author"
          } ]
        } ],
        "individual": {
          "reference": "urn:uuid:abc1b5ed-1380-48db-96bf-86130d179448"
        }
      }, {
        "type": [ {
          "text": "Informant"
        } ],
        "individual": {
          "reference": "urn:uuid:059f314e-a1bd-4ada-ac5e-d74300e9765f"
        }
      } ],
      "period": {
        "start": "2021-05-11T08:58:52+00:00"
      },
      "location": [ {
        "location": {
          "reference": "urn:uuid:6255777a-969a-4be0-8ad9-689c30cbe0fe"
        },
        "status": "active"
      }, {
        "location": {
          "reference": "urn:uuid:94fc63fa-03fa-4f04-9fc2-ae7bd1f78ae4"
        },
        "status": "completed"
      } ],
      "serviceProvider": {
        "reference": "urn:uuid:f2696ee3-ae35-4120-bd62-10bc58d05530"
      }
    }
  }, {
    "fullUrl": "urn:uuid:f2696ee3-ae35-4120-bd62-10bc58d05530",
    "resource": {
      "resourceType": "Organization",
      "id": "f2696ee3-ae35-4120-bd62-10bc58d05530",
      "active": true,
      "type": [ {
        "text": "CST"
      } ],
      "name": "Norfolk and Wisbech 111"
    }
  }, {
    "fullUrl": "urn:uuid:abc1b5ed-1380-48db-96bf-86130d179448",
    "resource": {
      "resourceType": "Practitioner",
      "id": "abc1b5ed-1380-48db-96bf-86130d179448",
      "active": true,
      "name": [ {
        "text": "Ben Smythson"
      } ]
    }
  }, {
    "fullUrl": "urn:uuid:059f314e-a1bd-4ada-ac5e-d74300e9765f",
    "resource": {
      "resourceType": "RelatedPerson",
      "id": "059f314e-a1bd-4ada-ac5e-d74300e9765f",
      "active": true,
      "patient": {
        "reference": "urn:uuid:ca15ce9e-b0be-45b1-b59d-7569ebb201f3"
      },
      "relationship": {
        "coding": [ {
          "system": "2.16.840.1.113883.2.1.3.2.4.16.45",
          "code": "21",
          "display": "Self"
        }, {
          "system": "http://hl7.org/fhir/v2/0131",
          "code": "C",
          "display": "Emergency Contact"
        } ]
      },
      "name": [ {
        "text": "Test Call TEST CALL DX07"
      } ],
      "telecom": [ {
        "system": "phone",
        "value": "tel:01233123123"
      } ],
      "gender": "unknown"
    }
  }, {
    "fullUrl": "urn:uuid:6255777a-969a-4be0-8ad9-689c30cbe0fe",
    "resource": {
      "resourceType": "Location",
      "id": "6255777a-969a-4be0-8ad9-689c30cbe0fe",
      "managingOrganization": {
        "reference": "urn:uuid:72eabc5d-bb75-438d-929e-fdbc88196cc9"
      }
    }
  }, {
    "fullUrl": "urn:uuid:72eabc5d-bb75-438d-929e-fdbc88196cc9",
    "resource": {
      "resourceType": "Organization",
      "id": "72eabc5d-bb75-438d-929e-fdbc88196cc9",
      "identifier": [ {
        "value": "Z10000"
      } ],
      "type": [ {
        "text": "GP Practice"
      } ],
      "name": "UNKNOWN"
    }
  }, {
    "fullUrl": "urn:uuid:94fc63fa-03fa-4f04-9fc2-ae7bd1f78ae4",
    "resource": {
      "resourceType": "Location",
      "id": "94fc63fa-03fa-4f04-9fc2-ae7bd1f78ae4",
      "address": {
        "type": "physical",
        "line": [ "313 VICTORIA ROAD", "LOWESTOFT" ],
        "postalCode": "NR33 9LS"
      }
    }
  }, {
    "fullUrl": "urn:uuid:ca15ce9e-b0be-45b1-b59d-7569ebb201f3",
    "resource": {
      "resourceType": "Patient",
      "id": "ca15ce9e-b0be-45b1-b59d-7569ebb201f3",
      "language": "en",
      "active": true,
      "name": [ {
        "use": "official",
        "family": "TEST CALL DX07",
        "given": [ "Test Call" ]
      } ],
      "telecom": [ {
        "system": "phone",
        "value": "tel:01233123123"
      } ],
      "gender": "male",
      "birthDate": "1996-03-25",
      "address": [ {
        "use": "home",
        "line": [ "313 VICTORIA ROAD", "LOWESTOFT" ],
        "postalCode": "NR33 9LS"
      }, {
        "type": "physical",
        "line": [ "313 VICTORIA ROAD", "LOWESTOFT" ],
        "postalCode": "NR33 9LS"
      } ],
      "generalPractitioner": [ {
        "reference": "urn:uuid:c88a598e-d037-4d7c-a91e-b49c647adc0f"
      } ]
    }
  }, {
    "fullUrl": "urn:uuid:c88a598e-d037-4d7c-a91e-b49c647adc0f",
    "resource": {
      "resourceType": "Organization",
      "id": "c88a598e-d037-4d7c-a91e-b49c647adc0f",
      "identifier": [ {
        "value": "Z10000"
      } ],
      "type": [ {
        "text": "GP Practice"
      } ],
      "name": "UNKNOWN"
    }
  }, {
    "fullUrl": "urn:uuid:a1c84c71-ccfb-4428-8091-dbb379088a4f",
    "resource": {
      "resourceType": "HealthcareService",
      "id": "a1c84c71-ccfb-4428-8091-dbb379088a4f",
      "active": true,
      "providedBy": {
        "reference": "urn:uuid:44721fe9-4581-44af-b638-200f90704511"
      },
      "location": [ {
        "reference": "urn:uuid:1630aeb1-378e-4b52-bcc6-507ca0d20b41"
      } ],
      "name": "Out of Hours GP Service (Waveney) - Kirkley Mill Health Centre, Lowestoft"
    }
  }, {
    "fullUrl": "urn:uuid:1630aeb1-378e-4b52-bcc6-507ca0d20b41",
    "resource": {
      "resourceType": "Location",
      "id": "1630aeb1-378e-4b52-bcc6-507ca0d20b41",
      "managingOrganization": {
        "reference": "urn:uuid:44721fe9-4581-44af-b638-200f90704511"
      }
    }
  }, {
    "fullUrl": "urn:uuid:44721fe9-4581-44af-b638-200f90704511",
    "resource": {
      "resourceType": "Organization",
      "id": "44721fe9-4581-44af-b638-200f90704511",
      "identifier": [ {
        "value": "NVE06"
      } ],
      "type": [ {
        "coding": [ {
          "code": "PRCP",
          "display": "Out of Hours GP Service (Waveney) - Kirkley Mill Health Centre, Lowestoft"
        } ]
      } ],
      "name": "Out of Hours GP Service (Waveney) - Kirkley Mill Health Centre, Lowestoft"
    }
  }, {
    "fullUrl": "urn:uuid:2656e582-fcab-469a-9764-70f39904fd55",
    "resource": {
      "resourceType": "ReferralRequest",
      "id": "2656e582-fcab-469a-9764-70f39904fd55",
      "status": "active",
      "intent": "plan",
      "priority": "routine",
      "subject": {
        "reference": "urn:uuid:ca15ce9e-b0be-45b1-b59d-7569ebb201f3"
      },
      "context": {
        "reference": "urn:uuid:988cc9c2-05f8-4302-bc16-83b3328a4a24"
      },
      "occurrencePeriod": {
        "start": "2021-10-01T07:34:04+00:00",
        "end": "2021-10-01T08:34:04+00:00"
      },
      "authoredOn": "2021-05-11T08:58:52+00:00",
      "requester": {
        "agent": {
          "reference": "urn:uuid:4c1d5cd6-56ff-44cf-a34a-4de430e57d04"
        },
        "onBehalfOf": {
          "reference": "urn:uuid:f2696ee3-ae35-4120-bd62-10bc58d05530"
        }
      },
      "recipient": [ {
        "reference": "urn:uuid:3c18ea99-89ce-43d9-857b-4f924506ac22"
      }, {
        "reference": "urn:uuid:a1c84c71-ccfb-4428-8091-dbb379088a4f"
      } ],
      "reasonReference": [ {
        "reference": "urn:uuid:3df80df4-4d7e-4122-91cf-adf1881d5ce6"
      } ],
      "supportingInfo": [ {
        "reference": "urn:uuid:a3592801-eaa7-4f94-885c-ac728435d0a5"
      } ]
    }
  }, {
    "fullUrl": "urn:uuid:a3592801-eaa7-4f94-885c-ac728435d0a5",
    "resource": {
      "resourceType": "ProcedureRequest",
      "id": "a3592801-eaa7-4f94-885c-ac728435d0a5",
      "status": "active",
      "intent": "plan",
      "priority": "routine",
      "doNotPerform": false,
      "code": {
        "coding": [ {
          "system": "2.16.840.1.113883.2.1.3.2.4.17.325",
          "code": "Dx07",
          "display": "To contact a local service within 12 hours"
        } ]
      },
      "subject": {
        "reference": "urn:uuid:ca15ce9e-b0be-45b1-b59d-7569ebb201f3"
      },
      "occurrencePeriod": {
        "start": "2021-10-01T07:34:04+00:00",
        "end": "2021-10-01T08:34:04+00:00"
      },
      "reasonReference": [ {
        "reference": "urn:uuid:3df80df4-4d7e-4122-91cf-adf1881d5ce6"
      } ]
    }
  }, {
    "fullUrl": "urn:uuid:3c18ea99-89ce-43d9-857b-4f924506ac22",
    "resource": {
      "resourceType": "Practitioner",
      "id": "3c18ea99-89ce-43d9-857b-4f924506ac22",
      "active": true,
      "telecom": [ {
        "system": "phone",
        "value": "tel:01233505450"
      } ],
      "address": [ {
        "type": "physical",
        "line": [ "Kingston House", "The Long Barrow", "Orbital Park", "Ashford", "Kent" ],
        "postalCode": "TN24 0GP"
      } ]
    }
  }, {
    "fullUrl": "urn:uuid:ea734087-636f-4081-a19d-d37d057c0b9a",
    "resource": {
      "resourceType": "Composition",
      "id": "ea734087-636f-4081-a19d-d37d057c0b9a",
      "identifier": {
        "use": "usual",
        "value": "B172BCF7-DD1C-4508-B781-6BE68ABD1F79"
      },
      "status": "final",
      "type": {
        "coding": [ {
          "system": "http://snomed.info/sct",
          "code": "371531000",
          "display": "Report of clinical encounter (record artifact)"
        } ]
      },
      "subject": {
        "reference": "urn:uuid:ca15ce9e-b0be-45b1-b59d-7569ebb201f3"
      },
      "encounter": {
        "reference": "urn:uuid:988cc9c2-05f8-4302-bc16-83b3328a4a24"
      },
      "date": "2021-10-01T07:34:04+00:00",
      "author": [ {
        "reference": "urn:uuid:abc1b5ed-1380-48db-96bf-86130d179448"
      } ],
      "title": "111 Report",
      "confidentiality": "R",
      "section": [ {
        "section": [ {
          "title": "Patient's Reported Condition",
          "text": {
            "status": "generated",
            "div": "<div xmlns=\"http://www.w3.org/1999/xhtml\">&lt;content&gt;&amp;lt;CLEO Ref: 2100310384&amp;gt; Test Call for Dx07.\n                                                        &lt;br/&gt;\n                                                    &lt;/content&gt;</div>"
          }
        }, {
          "title": "Pathways Disposition",
          "text": {
            "status": "generated",
            "div": "<div xmlns=\"http://www.w3.org/1999/xhtml\">&lt;content&gt;The individual needs to contact a local service within 12 hours. (Dx07)&lt;/content&gt;\n                                                    &lt;br/&gt;\n                                                    &lt;br/&gt;\n                                                    &lt;content&gt;Selected Service: 1335970392, Out of Hours GP Service (Waveney) - Kirkley Mill Health Centre, Lowestoft, 111&lt;/content&gt;\n                                                    &lt;br/&gt;</div>"
          }
        }, {
          "title": "Consultation Summary",
          "text": {
            "status": "generated",
            "div": "<div xmlns=\"http://www.w3.org/1999/xhtml\">&lt;content&gt;\n                                                        &lt;content&gt;Excessive thirst in last 4 weeks&lt;/content&gt;\n                                                        &lt;br/&gt;\n                                                        &lt;content&gt;Warm to touch&lt;/content&gt;\n                                                        &lt;br/&gt;\n                                                        &lt;content&gt;Illness - Test&lt;/content&gt;\n                                                        &lt;br/&gt;\n                                                    &lt;/content&gt;</div>"
          }
        }, {
          "title": "Pathways Assessment",
          "text": {
            "status": "generated",
            "div": "<div xmlns=\"http://www.w3.org/1999/xhtml\">&lt;content&gt;An injury or health problem was the reason for the contact.&lt;/content&gt;\n                                                    &lt;br/&gt;\n                                                    &lt;content&gt;Heavy bleeding had not occurred in the previous 2 hours.&lt;/content&gt;\n                                                    &lt;br/&gt;\n                                                    &lt;content&gt;An illness or health problem was the main problem. - Test&lt;/content&gt;\n                                                    &lt;br/&gt;\n                                                    &lt;content&gt;The individual was not fighting for breath.&lt;/content&gt;\n                                                    &lt;br/&gt;\n                                                    &lt;content&gt;The main reason for the assessment was not an allergic reaction, heart attack, chest/upper back pain, probable stroke, recent fit/seizure or suicide attempt.&lt;/content&gt;\n                                                    &lt;br/&gt;\n                                                    &lt;content&gt;The main reason for contact was not new confusion, declared diabetic hypo/hyperglycaemia, or ICD shock.&lt;/content&gt;\n                                                    &lt;br/&gt;\n                                                    &lt;content&gt;The skin on the torso felt normal, warm or hot.&lt;/content&gt;\n                                                    &lt;br/&gt;\n                                                    &lt;content&gt;There was no vomiting, diarrhoea, rectal bleeding, groin pain or groin swelling.&lt;/content&gt;\n                                                    &lt;br/&gt;\n                                                    &lt;content&gt;There was no new genital pain or swelling.&lt;/content&gt;\n                                                    &lt;br/&gt;\n                                                    &lt;content&gt;The individual was able to carry out most or all normal activities.&lt;/content&gt;\n                                                    &lt;br/&gt;\n                                                    &lt;content&gt;There was no crushing or severe aching chest, upper back or upper abdominal pain, or pain going to the arm, neck, jaw or shoulder.&lt;/content&gt;\n                                                    &lt;br/&gt;\n                                                    &lt;content&gt;The individual had not ingested a harmful or toxic substance.&lt;/content&gt;\n                                                    &lt;br/&gt;\n                                                    &lt;content&gt;There had been no black and tarry or red/maroon bowel motions.&lt;/content&gt;\n                                                    &lt;br/&gt;\n                                                    &lt;content&gt;There was no new or worsening confusion.&lt;/content&gt;\n                                                    &lt;br/&gt;\n                                                    &lt;content&gt;Breathing harder or faster when doing nothing was not described.&lt;/content&gt;\n                                                    &lt;br/&gt;\n                                                    &lt;content&gt;There was no new shoulder tip pain or pain in the lower right abdomen.&lt;/content&gt;\n                                                    &lt;br/&gt;\n                                                    &lt;content&gt;The individual did not use anticoagulant medication or have a bleeding/clotting disorder.&lt;/content&gt;\n                                                    &lt;br/&gt;\n                                                    &lt;content&gt;The individual had not been in constant pain for 4 hours or more.&lt;/content&gt;\n                                                    &lt;br/&gt;\n                                                    &lt;content&gt;The individual was not jaundiced.&lt;/content&gt;\n                                                    &lt;br/&gt;\n                                                    &lt;content&gt;The individual had experienced extreme thirst during the previous 4 weeks.&lt;/content&gt;\n                                                    &lt;br/&gt;</div>"
          }
        }, {
          "title": "Advice Given",
          "text": {
            "status": "generated",
            "div": "<div xmlns=\"http://www.w3.org/1999/xhtml\">&lt;content&gt;Unless advised not to, paracetamol may be used to relieve pain or fever. Follow the instructions in the pack. If in doubt ask a pharmacist.&lt;/content&gt;\n                                                    &lt;br/&gt;\n                                                    &lt;content&gt;Don't use ibuprofen or any other anti-inflammatory medication until you have spoken to a healthcare professional.&lt;/content&gt;\n                                                    &lt;br/&gt;\n                                                    &lt;content&gt;If there are any new symptoms, or if the condition gets worse, changes or you have any other concerns, call us back.&lt;/content&gt;\n                                                    &lt;br/&gt;\n                                                    &lt;content&gt;Remember to take a list of any current medications if you go to the out of hours surgery.&lt;/content&gt;\n                                                    &lt;br/&gt;</div>"
          }
        }, {
          "title": "SCR Consent",
          "text": {
            "status": "generated",
            "div": "<div xmlns=\"http://www.w3.org/1999/xhtml\">&lt;content&gt;Consent given for SCR sharing\n                                                        &lt;br/&gt;\n                                                        &lt;br/&gt;\n                                                    &lt;/content&gt;</div>"
          }
        } ]
      }, {
        "title": "ReferralRequest",
        "entry": [ {
          "reference": "urn:uuid:2656e582-fcab-469a-9764-70f39904fd55"
        } ]
      } ]
    }
  }, {
    "fullUrl": "urn:uuid:32c4e1b6-114c-4584-940e-7a8955853ca3",
    "resource": {
      "resourceType": "Consent",
      "id": "32c4e1b6-114c-4584-940e-7a8955853ca3",
      "identifier": {
        "use": "usual",
        "value": "B172BCF7-DD1C-4508-B781-6BE68ABD1F79"
      },
      "status": "active",
      "patient": {
        "reference": "urn:uuid:ca15ce9e-b0be-45b1-b59d-7569ebb201f3"
      },
      "period": {
        "start": "2021-05-11T08:58:52+00:00"
      },
      "consentingParty": [ {
        "reference": "urn:uuid:ca15ce9e-b0be-45b1-b59d-7569ebb201f3"
      } ],
      "action": [ {
        "coding": [ {
          "system": "http://snomed.info/sct",
          "code": "425691002",
          "display": "Consent given for electronic record sharing"
        } ],
        "text": "Consent given for electronic record sharing"
      } ],
      "organization": [ {
        "reference": "urn:uuid:f2696ee3-ae35-4120-bd62-10bc58d05530"
      } ],
      "policyRule": "http://hl7.org/fhir/ConsentPolicy/opt-out",
      "data": [ {
        "meaning": "related",
        "reference": {
          "reference": "urn:uuid:988cc9c2-05f8-4302-bc16-83b3328a4a24"
        }
      } ]
    }
  }, {
    "fullUrl": "urn:uuid:3df80df4-4d7e-4122-91cf-adf1881d5ce6",
    "resource": {
      "resourceType": "Condition",
      "id": "3df80df4-4d7e-4122-91cf-adf1881d5ce6",
      "clinicalStatus": "active",
      "verificationStatus": "unknown",
      "subject": {
        "reference": "urn:uuid:ca15ce9e-b0be-45b1-b59d-7569ebb201f3"
      },
      "context": {
        "reference": "urn:uuid:988cc9c2-05f8-4302-bc16-83b3328a4a24"
      }
    }
  }, {
    "fullUrl": "urn:uuid:d88867e8-e9eb-4efd-bf16-2011e6788640",
    "resource": {
      "resourceType": "Observation",
      "id": "d88867e8-e9eb-4efd-bf16-2011e6788640",
      "status": "final",
      "code": {
        "coding": [ {
          "system": "http://snomed.info/sct",
          "code": "33962009",
          "display": "Presenting complaint"
        } ]
      },
      "subject": {
        "reference": "urn:uuid:ca15ce9e-b0be-45b1-b59d-7569ebb201f3"
      },
      "context": {
        "reference": "urn:uuid:988cc9c2-05f8-4302-bc16-83b3328a4a24"
      },
      "valueString": "<CLEO Ref: 2100310384> Test Call for Dx07.\n                                                        "
    }
  }, {
    "fullUrl": "urn:uuid:5f03f473-bae1-4b15-8a75-36699b0f81b4",
    "resource": {
      "resourceType": "PractitionerRole",
      "id": "5f03f473-bae1-4b15-8a75-36699b0f81b4",
      "practitioner": {
        "reference": "urn:uuid:abc1b5ed-1380-48db-96bf-86130d179448"
      },
      "organization": {
        "reference": "urn:uuid:1ff1367e-df58-4c45-9ea0-cf26091b8777"
      },
      "code": [ {
        "coding": [ {
          "system": "2.16.840.1.113883.2.1.3.2.4.17.196",
          "code": "NR1690",
          "display": "Call Operator"
        } ]
      } ]
    }
  }, {
    "fullUrl": "urn:uuid:1ff1367e-df58-4c45-9ea0-cf26091b8777",
    "resource": {
      "resourceType": "Organization",
      "id": "1ff1367e-df58-4c45-9ea0-cf26091b8777",
      "identifier": [ {
        "value": "NTN08"
      } ],
      "name": "Norfolk and Wisbech 111"
    }
  }, {
    "fullUrl": "urn:uuid:07c87929-25f2-4911-a15b-3471d3c1e493",
    "resource": {
      "resourceType": "RelatedPerson",
      "id": "07c87929-25f2-4911-a15b-3471d3c1e493",
      "patient": {
        "reference": "urn:uuid:ca15ce9e-b0be-45b1-b59d-7569ebb201f3"
      },
      "relationship": {
        "coding": [ {
          "system": "http://hl7.org/fhir/v2/0131",
          "code": "C",
          "display": "Emergency Contact"
        } ]
      },
      "telecom": [ {
        "system": "phone",
        "value": "tel:01233123123"
      } ]
    }
  }, {
    "fullUrl": "urn:uuid:4c1d5cd6-56ff-44cf-a34a-4de430e57d04",
    "resource": {
      "resourceType": "Device",
      "id": "4c1d5cd6-56ff-44cf-a34a-4de430e57d04",
      "model": "111 Adaptor",
      "version": "0.11.0"
    }
  }, {
    "fullUrl": "urn:uuid:a28ebad4-6d39-42c2-a188-4c823c458e37",
    "resource": {
      "resourceType": "List",
      "id": "a28ebad4-6d39-42c2-a188-4c823c458e37",
      "status": "current",
      "mode": "working",
      "title": "111 Report List",
      "code": {
        "coding": [ {
          "system": "http://snomed.info/sct",
          "code": "225390008",
          "display": "Triage"
        } ]
      },
      "subject": {
        "reference": "urn:uuid:ca15ce9e-b0be-45b1-b59d-7569ebb201f3"
      },
      "encounter": {
        "reference": "urn:uuid:988cc9c2-05f8-4302-bc16-83b3328a4a24"
      },
      "date": "2021-10-01T07:34:04+00:00",
      "source": {
        "reference": "urn:uuid:4c1d5cd6-56ff-44cf-a34a-4de430e57d04"
      },
      "orderedBy": {
        "coding": [ {
          "system": "http://hl7.org/fhir/list-order",
          "code": "event-date",
          "display": "Sorted by Event Date"
        } ]
      },
      "entry": [ {
        "item": {
          "reference": "urn:uuid:059f314e-a1bd-4ada-ac5e-d74300e9765f"
        }
      }, {
        "item": {
          "reference": "urn:uuid:3c18ea99-89ce-43d9-857b-4f924506ac22"
        }
      }, {
        "item": {
          "reference": "urn:uuid:44721fe9-4581-44af-b638-200f90704511"
        }
      }, {
        "item": {
          "reference": "urn:uuid:1ff1367e-df58-4c45-9ea0-cf26091b8777"
        }
      }, {
        "item": {
          "reference": "urn:uuid:c88a598e-d037-4d7c-a91e-b49c647adc0f"
        }
      }, {
        "item": {
          "reference": "urn:uuid:f2696ee3-ae35-4120-bd62-10bc58d05530"
        }
      }, {
        "item": {
          "reference": "urn:uuid:d88867e8-e9eb-4efd-bf16-2011e6788640"
        }
      }, {
        "item": {
          "reference": "urn:uuid:07c87929-25f2-4911-a15b-3471d3c1e493"
        }
      }, {
        "item": {
          "reference": "urn:uuid:abc1b5ed-1380-48db-96bf-86130d179448"
        }
      }, {
        "item": {
          "reference": "urn:uuid:72eabc5d-bb75-438d-929e-fdbc88196cc9"
        }
      }, {
        "item": {
          "reference": "urn:uuid:3df80df4-4d7e-4122-91cf-adf1881d5ce6"
        }
      }, {
        "item": {
          "reference": "urn:uuid:2656e582-fcab-469a-9764-70f39904fd55"
        }
      } ]
    }
  } ]
}