{
  "resourceType": "Bundle",
  "identifier": {
    "type": {
      "text": "ClinicalDocument VersionNumber"
    },
    "value": "1"
  },
  "type": "message",
  "entry": [ {
    "fullUrl": "urn:uuid:D78E4686-5082-4E76-9359-6A84AE0C9C10",
    "resource": {
      "resourceType": "MessageHeader",
      "id": "D78E4686-5082-4E76-9359-6A84AE0C9C10",
      "event": {
        "system": "https://fhir.nhs.uk/STU3/CodeSystem/EventType-1",
        "code": "referral-1",
        "display": "Referral"
      },
      "destination": [ {
        "endpoint": "urn:nhs-uk:addressing:ods:NVE06:DOSServiceID:1335970392"
      } ],
      "timestamp": "2021-05-11T08:53:28.000+00:00",
      "source": {
        "name": "NHS 111 Adaptor",
        "endpoint": "http://localhost:8080/report"
      },
      "reason": {
        "coding": [ {
          "system": "urn:nhs-itk:ns:201005:interaction",
          "code": "urn:nhs-itk:interaction:primaryOutofHourRecipientNHS111CDADocument-v2-0"
        } ]
      }
    }
  }, {
    "fullUrl": "urn:uuid:5a312a07-e7fc-4c29-a40c-3f99d0325166",
    "resource": {
      "resourceType": "Encounter",
      "id": "5a312a07-e7fc-4c29-a40c-3f99d0325166",
      "identifier": [ {
        "system": "2.16.840.1.113883.2.1.3.2.4.18.34",
        "value": "0060E06D-C899-440E-B58E-B5522662EC28"
      }, {
        "system": "2.16.840.1.113883.2.1.3.2.4.18.35",
        "value": "2100310382"
      } ],
      "status": "finished",
      "type": [ {
        "text": "111 Encounter Referral"
      } ],
      "subject": {
        "reference": "urn:uuid:9fffc33a-5915-496d-a1ff-7ed11daba246"
      },
      "participant": [ {
        "type": [ {
          "coding": [ {
            "system": "http://hl7.org/fhir/ValueSet/encounter-participant-type",
            "code": "PPRF",
            "display": "Author"
          } ]
        } ],
        "individual": {
          "reference": "urn:uuid:94377590-fa6c-4e3e-a7a6-3b99427671a7"
        }
      }, {
        "type": [ {
          "text": "Informant"
        } ],
        "individual": {
          "reference": "urn:uuid:3d7b0de0-5f3d-41d7-80cc-f62e44a7f4fd"
        }
      } ],
      "period": {
        "start": "2021-05-11T08:53:28+00:00"
      },
      "location": [ {
        "location": {
          "reference": "urn:uuid:a3f25cd8-4687-483a-9558-bb996aaded1d"
        },
        "status": "active"
      }, {
        "location": {
          "reference": "urn:uuid:1015ee50-1a47-4723-8cbb-382782dc9446"
        },
        "status": "completed"
      } ],
      "serviceProvider": {
        "reference": "urn:uuid:5d68bf2a-15e1-43e4-87f7-83f56b8decd9"
      }
    }
  }, {
    "fullUrl": "urn:uuid:5d68bf2a-15e1-43e4-87f7-83f56b8decd9",
    "resource": {
      "resourceType": "Organization",
      "id": "5d68bf2a-15e1-43e4-87f7-83f56b8decd9",
      "active": true,
      "type": [ {
        "text": "CST"
      } ],
      "name": "Norfolk and Wisbech 111"
    }
  }, {
    "fullUrl": "urn:uuid:94377590-fa6c-4e3e-a7a6-3b99427671a7",
    "resource": {
      "resourceType": "Practitioner",
      "id": "94377590-fa6c-4e3e-a7a6-3b99427671a7",
      "active": true,
      "name": [ {
        "text": "Ben Smythson"
      } ]
    }
  }, {
    "fullUrl": "urn:uuid:3d7b0de0-5f3d-41d7-80cc-f62e44a7f4fd",
    "resource": {
      "resourceType": "RelatedPerson",
      "id": "3d7b0de0-5f3d-41d7-80cc-f62e44a7f4fd",
      "active": true,
      "patient": {
        "reference": "urn:uuid:9fffc33a-5915-496d-a1ff-7ed11daba246"
      },
      "relationship": {
        "coding": [ {
          "system": "2.16.840.1.113883.2.1.3.2.4.16.45",
          "code": "21",
          "display": "Self"
        }, {
          "system": "http://hl7.org/fhir/v2/0131",
          "code": "C",
          "display": "Emergency Contact"
        } ]
      },
      "name": [ {
        "text": "Test Call TEST CALL DX06"
      } ],
      "telecom": [ {
        "system": "phone",
        "value": "tel:01233123123"
      } ],
      "gender": "unknown"
    }
  }, {
    "fullUrl": "urn:uuid:a3f25cd8-4687-483a-9558-bb996aaded1d",
    "resource": {
      "resourceType": "Location",
      "id": "a3f25cd8-4687-483a-9558-bb996aaded1d",
      "managingOrganization": {
        "reference": "urn:uuid:258a4502-5484-4729-b16f-dabb3865fbc8"
      }
    }
  }, {
    "fullUrl": "urn:uuid:258a4502-5484-4729-b16f-dabb3865fbc8",
    "resource": {
      "resourceType": "Organization",
      "id": "258a4502-5484-4729-b16f-dabb3865fbc8",
      "identifier": [ {
        "value": "Z10000"
      } ],
      "type": [ {
        "text": "GP Practice"
      } ],
      "name": "UNKNOWN"
    }
  }, {
    "fullUrl": "urn:uuid:1015ee50-1a47-4723-8cbb-382782dc9446",
    "resource": {
      "resourceType": "Location",
      "id": "1015ee50-1a47-4723-8cbb-382782dc9446",
      "address": {
        "type": "physical",
        "line": [ "313 VICTORIA ROAD", "LOWESTOFT" ],
        "postalCode": "NR33 9LS"
      }
    }
  }, {
    "fullUrl": "urn:uuid:9fffc33a-5915-496d-a1ff-7ed11daba246",
    "resource": {
      "resourceType": "Patient",
      "id": "9fffc33a-5915-496d-a1ff-7ed11daba246",
      "language": "en",
      "active": true,
      "name": [ {
        "use": "official",
        "family": "TEST CALL DX06",
        "given": [ "Test Call" ]
      } ],
      "telecom": [ {
        "system": "phone",
        "value": "tel:01233123123"
      } ],
      "gender": "male",
      "birthDate": "1996-03-25",
      "address": [ {
        "use": "home",
        "line": [ "313 VICTORIA ROAD", "LOWESTOFT" ],
        "postalCode": "NR33 9LS"
      }, {
        "type": "physical",
        "line": [ "313 VICTORIA ROAD", "LOWESTOFT" ],
        "postalCode": "NR33 9LS"
      } ],
      "generalPractitioner": [ {
        "reference": "urn:uuid:40614d82-c102-4285-99d0-81164255ff54"
      } ]
    }
  }, {
    "fullUrl": "urn:uuid:40614d82-c102-4285-99d0-81164255ff54",
    "resource": {
      "resourceType": "Organization",
      "id": "40614d82-c102-4285-99d0-81164255ff54",
      "identifier": [ {
        "value": "Z10000"
      } ],
      "type": [ {
        "text": "GP Practice"
      } ],
      "name": "UNKNOWN"
    }
  }, {
    "fullUrl": "urn:uuid:c006eed4-176a-4b52-abaa-4fe708f4ed0f",
    "resource": {
      "resourceType": "HealthcareService",
      "id": "c006eed4-176a-4b52-abaa-4fe708f4ed0f",
      "active": true,
      "providedBy": {
        "reference": "urn:uuid:2eb7ee4a-770a-4cd5-8d71-a159216c44da"
      },
      "location": [ {
        "reference": "urn:uuid:80cf35c8-4c48-4a41-b798-3ddf70e997e3"
      } ],
      "name": "Out of Hours GP Service (Waveney) - Kirkley Mill Health Centre, Lowestoft"
    }
  }, {
    "fullUrl": "urn:uuid:80cf35c8-4c48-4a41-b798-3ddf70e997e3",
    "resource": {
      "resourceType": "Location",
      "id": "80cf35c8-4c48-4a41-b798-3ddf70e997e3",
      "managingOrganization": {
        "reference": "urn:uuid:2eb7ee4a-770a-4cd5-8d71-a159216c44da"
      }
    }
  }, {
    "fullUrl": "urn:uuid:2eb7ee4a-770a-4cd5-8d71-a159216c44da",
    "resource": {
      "resourceType": "Organization",
      "id": "2eb7ee4a-770a-4cd5-8d71-a159216c44da",
      "identifier": [ {
        "value": "NVE06"
      } ],
      "type": [ {
        "coding": [ {
          "code": "PRCP",
          "display": "Out of Hours GP Service (Waveney) - Kirkley Mill Health Centre, Lowestoft"
        } ]
      } ],
      "name": "Out of Hours GP Service (Waveney) - Kirkley Mill Health Centre, Lowestoft"
    }
  }, {
    "fullUrl": "urn:uuid:d6768adf-a29d-421b-be10-b7564f72f10a",
    "resource": {
      "resourceType": "ReferralRequest",
      "id": "d6768adf-a29d-421b-be10-b7564f72f10a",
      "status": "active",
      "intent": "plan",
      "priority": "routine",
      "subject": {
        "reference": "urn:uuid:9fffc33a-5915-496d-a1ff-7ed11daba246"
      },
      "context": {
        "reference": "urn:uuid:5a312a07-e7fc-4c29-a40c-3f99d0325166"
      },
      "occurrencePeriod": {
        "start": "2021-10-11T06:41:50+00:00",
        "end": "2021-10-11T07:41:50+00:00"
      },
      "authoredOn": "2021-05-11T08:53:28+00:00",
      "requester": {
        "agent": {
          "reference": "urn:uuid:3ae0b008-7dc2-43d3-b0dd-63b0e3740527"
        },
        "onBehalfOf": {
          "reference": "urn:uuid:5d68bf2a-15e1-43e4-87f7-83f56b8decd9"
        }
      },
      "recipient": [ {
        "reference": "urn:uuid:6ba99726-bfe6-477d-b655-852c875fc2cc"
      }, {
        "reference": "urn:uuid:c006eed4-176a-4b52-abaa-4fe708f4ed0f"
      } ],
      "reasonReference": [ {
        "reference": "urn:uuid:210f705a-8d37-483f-bee7-769607201a9b"
      } ],
      "supportingInfo": [ {
        "reference": "urn:uuid:4ba66fdb-4f04-4282-beed-7657d842b43e"
      } ]
    }
  }, {
    "fullUrl": "urn:uuid:4ba66fdb-4f04-4282-beed-7657d842b43e",
    "resource": {
      "resourceType": "ProcedureRequest",
      "id": "4ba66fdb-4f04-4282-beed-7657d842b43e",
      "status": "active",
      "intent": "plan",
      "priority": "routine",
      "doNotPerform": false,
      "code": {
        "coding": [ {
          "system": "2.16.840.1.113883.2.1.3.2.4.17.325",
          "code": "Dx06",
          "display": "To contact a local service within 6 hours"
        } ]
      },
      "subject": {
        "reference": "urn:uuid:9fffc33a-5915-496d-a1ff-7ed11daba246"
      },
      "occurrencePeriod": {
        "start": "2021-10-11T06:41:50+00:00",
        "end": "2021-10-11T07:41:50+00:00"
      },
      "reasonReference": [ {
        "reference": "urn:uuid:210f705a-8d37-483f-bee7-769607201a9b"
      } ]
    }
  }, {
    "fullUrl": "urn:uuid:6ba99726-bfe6-477d-b655-852c875fc2cc",
    "resource": {
      "resourceType": "Practitioner",
      "id": "6ba99726-bfe6-477d-b655-852c875fc2cc",
      "active": true,
      "telecom": [ {
        "system": "phone",
        "value": "tel:01233505450"
      } ],
      "address": [ {
        "type": "physical",
        "line": [ "Kingston House", "The Long Barrow", "Orbital Park", "Ashford", "Kent" ],
        "postalCode": "TN24 0GP"
      } ]
    }
  }, {
    "fullUrl": "urn:uuid:09366b50-5e90-4549-a5a8-080c0aca8795",
    "resource": {
      "resourceType": "Composition",
      "id": "09366b50-5e90-4549-a5a8-080c0aca8795",
      "identifier": {
        "use": "usual",
        "value": "192F7989-BE74-4F5C-AA94-FC0778DAC8AA"
      },
      "status": "final",
      "type": {
        "coding": [ {
          "system": "http://snomed.info/sct",
          "code": "371531000",
          "display": "Report of clinical encounter (record artifact)"
        } ]
      },
      "subject": {
        "reference": "urn:uuid:9fffc33a-5915-496d-a1ff-7ed11daba246"
      },
      "encounter": {
        "reference": "urn:uuid:5a312a07-e7fc-4c29-a40c-3f99d0325166"
      },
      "date": "2021-10-11T06:41:50+00:00",
      "author": [ {
        "reference": "urn:uuid:94377590-fa6c-4e3e-a7a6-3b99427671a7"
      } ],
      "title": "111 Report",
      "confidentiality": "R",
      "section": [ {
        "section": [ {
          "title": "Patient's Reported Condition",
          "text": {
            "status": "generated",
            "div": "<div xmlns=\"http://www.w3.org/1999/xhtml\">&lt;content&gt;&amp;lt;CLEO Ref: 2100310382&amp;gt; Test Call for DX06.\n                                                        &lt;br/&gt;\n                                                    &lt;/content&gt;</div>"
          }
        }, {
          "title": "Pathways Disposition",
          "text": {
            "status": "generated",
            "div": "<div xmlns=\"http://www.w3.org/1999/xhtml\">&lt;content&gt;The individual needs to contact a local service within 6 hours. (Dx06)&lt;/content&gt;\n                                                    &lt;br/&gt;\n                                                    &lt;br/&gt;\n                                                    &lt;content&gt;Selected Service: 1335970392, Out of Hours GP Service (Waveney) - Kirkley Mill Health Centre, Lowestoft, 111&lt;/content&gt;\n                                                    &lt;br/&gt;</div>"
          }
        }, {
          "title": "Consultation Summary",
          "text": {
            "status": "generated",
            "div": "<div xmlns=\"http://www.w3.org/1999/xhtml\">&lt;content&gt;\n                                                        &lt;content&gt;Constant pain for more than 4 hours&lt;/content&gt;\n                                                        &lt;br/&gt;\n                                                        &lt;content&gt;Warm to touch&lt;/content&gt;\n                                                        &lt;br/&gt;\n                                                        &lt;content&gt;Illness - Test&lt;/content&gt;\n                                                        &lt;br/&gt;\n                                                    &lt;/content&gt;</div>"
          }
        }, {
          "title": "Pathways Assessment",
          "text": {
            "status": "generated",
            "div": "<div xmlns=\"http://www.w3.org/1999/xhtml\">&lt;content&gt;An injury or health problem was the reason for the contact.&lt;/content&gt;\n                                                    &lt;br/&gt;\n                                                    &lt;content&gt;Heavy bleeding had not occurred in the previous 2 hours.&lt;/content&gt;\n                                                    &lt;br/&gt;\n                                                    &lt;content&gt;An illness or health problem was the main problem. - Test&lt;/content&gt;\n                                                    &lt;br/&gt;\n                                                    &lt;content&gt;The individual was not fighting for breath.&lt;/content&gt;\n                                                    &lt;br/&gt;\n                                                    &lt;content&gt;The main reason for the assessment was not an allergic reaction, heart attack, chest/upper back pain, probable stroke, recent fit/seizure or suicide attempt.&lt;/content&gt;\n                                                    &lt;br/&gt;\n                                                    &lt;content&gt;The main reason for contact was not new confusion, declared diabetic hypo/hyperglycaemia, or ICD shock.&lt;/content&gt;\n                                                    &lt;br/&gt;\n                                                    &lt;content&gt;The skin on the torso felt normal, warm or hot.&lt;/content&gt;\n                                                    &lt;br/&gt;\n                                                    &lt;content&gt;There was no vomiting, diarrhoea, rectal bleeding, groin pain or groin swelling.&lt;/content&gt;\n                                                    &lt;br/&gt;\n                                                    &lt;content&gt;There was no new genital pain or swelling.&lt;/content&gt;\n                                                    &lt;br/&gt;\n                                                    &lt;content&gt;The individual was able to carry out most or all normal activities.&lt;/content&gt;\n                                                    &lt;br/&gt;\n                                                    &lt;content&gt;There was no crushing or severe aching chest, upper back or upper abdominal pain, or pain going to the arm, neck, jaw or shoulder.&lt;/content&gt;\n                                                    &lt;br/&gt;\n                                                    &lt;content&gt;The individual had not ingested a harmful or toxic substance.&lt;/content&gt;\n                                                    &lt;br/&gt;\n                                                    &lt;content&gt;There had been no black and tarry or red/maroon bowel motions.&lt;/content&gt;\n                                                    &lt;br/&gt;\n                                                    &lt;content&gt;There was no new or worsening confusion.&lt;/content&gt;\n                                                    &lt;br/&gt;\n                                                    &lt;content&gt;Breathing harder or faster when doing nothing was not described.&lt;/content&gt;\n                                                    &lt;br/&gt;\n                                                    &lt;content&gt;There was no new shoulder tip pain or pain in the lower right abdomen.&lt;/content&gt;\n                                                    &lt;br/&gt;\n                                                    &lt;content&gt;The individual did not use anticoagulant medication or have a bleeding/clotting disorder.&lt;/content&gt;\n                                                    &lt;br/&gt;\n                                                    &lt;content&gt;There was constant pain for 4 hours or more.&lt;/content&gt;\n                                                    &lt;br/&gt;</div>"
          }
        }, {
          "title": "Advice Given",
          "text": {
            "status": "generated",
            "div": "<div xmlns=\"http://www.w3.org/1999/xhtml\">&lt;content&gt;Unless advised not to, paracetamol may be used to relieve pain or fever. Follow the instructions in the pack. If in doubt ask a pharmacist.&lt;/content&gt;\n                                                    &lt;br/&gt;\n                                                    &lt;content&gt;Don't use ibuprofen or any other anti-inflammatory medication until you have spoken to a healthcare professional.&lt;/content&gt;\n                                                    &lt;br/&gt;\n                                                    &lt;content&gt;If there are any new symptoms, or if the condition gets worse, changes or you have any other concerns, call us back.&lt;/content&gt;\n                                                    &lt;br/&gt;\n                                                    &lt;content&gt;Remember to take a list of any current medications if you go to the out of hours surgery.&lt;/content&gt;\n                                                    &lt;br/&gt;</div>"
          }
        }, {
          "title": "SCR Consent",
          "text": {
            "status": "generated",
            "div": "<div xmlns=\"http://www.w3.org/1999/xhtml\">&lt;content&gt;Consent given for SCR sharing\n                                                        &lt;br/&gt;\n                                                        &lt;br/&gt;\n                                                    &lt;/content&gt;</div>"
          }
        } ]
      }, {
        "title": "ReferralRequest",
        "entry": [ {
          "reference": "urn:uuid:d6768adf-a29d-421b-be10-b7564f72f10a"
        } ]
      } ]
    }
  }, {
    "fullUrl": "urn:uuid:2736dcbd-87fa-4e4c-a458-9eb3b7c73a6c",
    "resource": {
      "resourceType": "Consent",
      "id": "2736dcbd-87fa-4e4c-a458-9eb3b7c73a6c",
      "identifier": {
        "use": "usual",
        "value": "192F7989-BE74-4F5C-AA94-FC0778DAC8AA"
      },
      "status": "active",
      "patient": {
        "reference": "urn:uuid:9fffc33a-5915-496d-a1ff-7ed11daba246"
      },
      "period": {
        "start": "2021-05-11T08:53:28+00:00"
      },
      "consentingParty": [ {
        "reference": "urn:uuid:9fffc33a-5915-496d-a1ff-7ed11daba246"
      } ],
      "action": [ {
        "coding": [ {
          "system": "http://snomed.info/sct",
          "code": "425691002",
          "display": "Consent given for electronic record sharing"
        } ],
        "text": "Consent given for electronic record sharing"
      } ],
      "organization": [ {
        "reference": "urn:uuid:5d68bf2a-15e1-43e4-87f7-83f56b8decd9"
      } ],
      "policyRule": "http://hl7.org/fhir/ConsentPolicy/opt-out",
      "data": [ {
        "meaning": "related",
        "reference": {
          "reference": "urn:uuid:5a312a07-e7fc-4c29-a40c-3f99d0325166"
        }
      } ]
    }
  }, {
    "fullUrl": "urn:uuid:210f705a-8d37-483f-bee7-769607201a9b",
    "resource": {
      "resourceType": "Condition",
      "id": "210f705a-8d37-483f-bee7-769607201a9b",
      "clinicalStatus": "active",
      "verificationStatus": "unknown",
      "subject": {
        "reference": "urn:uuid:9fffc33a-5915-496d-a1ff-7ed11daba246"
      },
      "context": {
        "reference": "urn:uuid:5a312a07-e7fc-4c29-a40c-3f99d0325166"
      }
    }
  }, {
    "fullUrl": "urn:uuid:7d0d2f80-8ca5-41ba-b38c-08f584da68bf",
    "resource": {
      "resourceType": "Observation",
      "id": "7d0d2f80-8ca5-41ba-b38c-08f584da68bf",
      "status": "final",
      "code": {
        "coding": [ {
          "system": "http://snomed.info/sct",
          "code": "33962009",
          "display": "Presenting complaint"
        } ]
      },
      "subject": {
        "reference": "urn:uuid:9fffc33a-5915-496d-a1ff-7ed11daba246"
      },
      "context": {
        "reference": "urn:uuid:5a312a07-e7fc-4c29-a40c-3f99d0325166"
      },
      "valueString": "<CLEO Ref: 2100310382> Test Call for DX06.\n                                                        "
    }
  }, {
    "fullUrl": "urn:uuid:584309d6-52f5-43fd-8a55-c3db647049d4",
    "resource": {
      "resourceType": "PractitionerRole",
      "id": "584309d6-52f5-43fd-8a55-c3db647049d4",
      "practitioner": {
        "reference": "urn:uuid:94377590-fa6c-4e3e-a7a6-3b99427671a7"
      },
      "organization": {
        "reference": "urn:uuid:cd203189-722a-4189-8ba0-fa0822b8aca4"
      },
      "code": [ {
        "coding": [ {
          "system": "2.16.840.1.113883.2.1.3.2.4.17.196",
          "code": "NR1690",
          "display": "Call Operator"
        } ]
      } ]
    }
  }, {
    "fullUrl": "urn:uuid:cd203189-722a-4189-8ba0-fa0822b8aca4",
    "resource": {
      "resourceType": "Organization",
      "id": "cd203189-722a-4189-8ba0-fa0822b8aca4",
      "identifier": [ {
        "value": "NTN08"
      } ],
      "name": "Norfolk and Wisbech 111"
    }
  }, {
    "fullUrl": "urn:uuid:c17523a5-6203-42c4-b67d-4408b7200247",
    "resource": {
      "resourceType": "RelatedPerson",
      "id": "c17523a5-6203-42c4-b67d-4408b7200247",
      "patient": {
        "reference": "urn:uuid:9fffc33a-5915-496d-a1ff-7ed11daba246"
      },
      "relationship": {
        "coding": [ {
          "system": "http://hl7.org/fhir/v2/0131",
          "code": "C",
          "display": "Emergency Contact"
        } ]
      },
      "telecom": [ {
        "system": "phone",
        "value": "tel:01233123123"
      } ]
    }
  }, {
    "fullUrl": "urn:uuid:3ae0b008-7dc2-43d3-b0dd-63b0e3740527",
    "resource": {
      "resourceType": "Device",
      "id": "3ae0b008-7dc2-43d3-b0dd-63b0e3740527",
      "model": "111 Adaptor",
      "version": "1.0.0"
    }
  }, {
    "fullUrl": "urn:uuid:a25fff42-01b0-44aa-93e4-97f90a77a22b",
    "resource": {
      "resourceType": "List",
      "id": "a25fff42-01b0-44aa-93e4-97f90a77a22b",
      "status": "current",
      "mode": "working",
      "title": "111 Report List",
      "code": {
        "coding": [ {
          "system": "http://snomed.info/sct",
          "code": "225390008",
          "display": "Triage"
        } ]
      },
      "subject": {
        "reference": "urn:uuid:9fffc33a-5915-496d-a1ff-7ed11daba246"
      },
      "encounter": {
        "reference": "urn:uuid:5a312a07-e7fc-4c29-a40c-3f99d0325166"
      },
      "date": "2021-10-11T06:41:50+00:00",
      "source": {
        "reference": "urn:uuid:3ae0b008-7dc2-43d3-b0dd-63b0e3740527"
      },
      "orderedBy": {
        "coding": [ {
          "system": "http://hl7.org/fhir/list-order",
          "code": "event-date",
          "display": "Sorted by Event Date"
        } ]
      },
      "entry": [ {
        "item": {
          "reference": "urn:uuid:40614d82-c102-4285-99d0-81164255ff54"
        }
      }, {
        "item": {
          "reference": "urn:uuid:7d0d2f80-8ca5-41ba-b38c-08f584da68bf"
        }
      }, {
        "item": {
          "reference": "urn:uuid:6ba99726-bfe6-477d-b655-852c875fc2cc"
        }
      }, {
        "item": {
          "reference": "urn:uuid:3d7b0de0-5f3d-41d7-80cc-f62e44a7f4fd"
        }
      }, {
        "item": {
          "reference": "urn:uuid:c17523a5-6203-42c4-b67d-4408b7200247"
        }
      }, {
        "item": {
          "reference": "urn:uuid:2eb7ee4a-770a-4cd5-8d71-a159216c44da"
        }
      }, {
        "item": {
          "reference": "urn:uuid:cd203189-722a-4189-8ba0-fa0822b8aca4"
        }
      }, {
        "item": {
          "reference": "urn:uuid:258a4502-5484-4729-b16f-dabb3865fbc8"
        }
      }, {
        "item": {
          "reference": "urn:uuid:5d68bf2a-15e1-43e4-87f7-83f56b8decd9"
        }
      }, {
        "item": {
          "reference": "urn:uuid:94377590-fa6c-4e3e-a7a6-3b99427671a7"
        }
      }, {
        "item": {
          "reference": "urn:uuid:210f705a-8d37-483f-bee7-769607201a9b"
        }
      }, {
        "item": {
          "reference": "urn:uuid:d6768adf-a29d-421b-be10-b7564f72f10a"
        }
      } ]
    }
  } ]
}