{
  "resourceType": "Bundle",
  "identifier": {
    "type": {
      "text": "ClinicalDocument VersionNumber"
    },
    "value": "1"
  },
  "type": "message",
  "entry": [ {
    "fullUrl": "urn:uuid:A12F527F-3808-44BC-9272-8C8A92884A37",
    "resource": {
      "resourceType": "MessageHeader",
      "id": "A12F527F-3808-44BC-9272-8C8A92884A37",
      "event": {
        "system": "https://fhir.nhs.uk/STU3/CodeSystem/EventType-1",
        "code": "referral-1",
        "display": "Referral"
      },
      "destination": [ {
        "endpoint": "urn:nhs-uk:addressing:ods:20000729:DOSServiceID:2000072936"
      } ],
      "timestamp": "2020-10-30T18:29:05.000+00:00",
      "source": {
        "name": "NHS 111 Adaptor",
        "endpoint": "http://localhost:8080/report"
      },
      "reason": {
        "coding": [ {
          "system": "urn:nhs-itk:ns:201005:interaction",
          "code": "urn:nhs-itk:interaction:primaryNHS111RepeatCallerDocumentSet-v1-0"
        } ]
      }
    }
  }, {
    "fullUrl": "urn:uuid:f5d46de8-0a51-4dc2-a661-adcbaa5df5b7",
    "resource": {
      "resourceType": "Encounter",
      "id": "f5d46de8-0a51-4dc2-a661-adcbaa5df5b7",
      "identifier": [ {
        "system": "2.16.840.1.113883.2.1.3.2.4.18.34",
        "value": "CF1F65AB-2392-4582-9E14-F0384358CB6A"
      }, {
        "system": "2.16.840.1.113883.2.1.3.2.4.18.35",
        "value": "7434927"
      } ],
      "status": "finished",
      "type": [ {
        "text": "111 Encounter Referral"
      } ],
      "subject": {
        "reference": "urn:uuid:a2bc7d93-c9fd-4967-a86f-01e24e39c56e"
      },
      "participant": [ {
        "type": [ {
          "coding": [ {
            "system": "http://hl7.org/fhir/ValueSet/encounter-participant-type",
            "code": "PPRF",
            "display": "Author"
          } ]
        } ],
        "individual": {
          "reference": "urn:uuid:d5e856e3-09ad-4ce5-974d-195668cd104e"
        }
      }, {
        "type": [ {
          "coding": [ {
            "system": "http://hl7.org/fhir/ValueSet/encounter-participant-type",
            "code": "ATND",
            "display": "Responsible Party"
          } ]
        } ],
        "individual": {
          "reference": "urn:uuid:9fbee69d-d87a-4471-b8b7-d63d34e5016c"
        }
      } ],
      "period": {
        "start": "2020-10-30T18:29:05+00:00"
      },
      "location": [ {
        "location": {
          "reference": "urn:uuid:219cee5e-fb9b-4d1e-9b94-5d0e0cb8f827"
        },
        "status": "active"
      }, {
        "location": {
          "reference": "urn:uuid:4f1e0604-1eae-4db2-99a3-dfcb4a4654c4"
        },
        "status": "completed"
      } ],
      "serviceProvider": {
        "reference": "urn:uuid:8b4271cc-5e93-4d31-8c1b-b71e89e05c7b"
      }
    }
  }, {
    "fullUrl": "urn:uuid:8b4271cc-5e93-4d31-8c1b-b71e89e05c7b",
    "resource": {
      "resourceType": "Organization",
      "id": "8b4271cc-5e93-4d31-8c1b-b71e89e05c7b",
      "active": true,
      "type": [ {
        "text": "CST"
      } ],
      "name": "Devon Doctors Group"
    }
  }, {
    "fullUrl": "urn:uuid:d5e856e3-09ad-4ce5-974d-195668cd104e",
    "resource": {
      "resourceType": "Practitioner",
      "id": "d5e856e3-09ad-4ce5-974d-195668cd104e",
      "active": true,
      "name": [ {
        "use": "official",
        "family": "Service Advisor",
        "given": [ "Dental" ]
      } ]
    }
  }, {
    "fullUrl": "urn:uuid:9fbee69d-d87a-4471-b8b7-d63d34e5016c",
    "resource": {
      "resourceType": "Practitioner",
      "id": "9fbee69d-d87a-4471-b8b7-d63d34e5016c",
      "active": true,
      "name": [ {
        "use": "official",
        "family": "Eggleton",
        "given": [ "Dr. Mark" ]
      } ]
    }
  }, {
    "fullUrl": "urn:uuid:219cee5e-fb9b-4d1e-9b94-5d0e0cb8f827",
    "resource": {
      "resourceType": "Location",
      "id": "219cee5e-fb9b-4d1e-9b94-5d0e0cb8f827",
      "managingOrganization": {
        "reference": "urn:uuid:891e3211-713c-4f5d-9709-6a3ae06b884c"
      }
    }
  }, {
    "fullUrl": "urn:uuid:891e3211-713c-4f5d-9709-6a3ae06b884c",
    "resource": {
      "resourceType": "Organization",
      "id": "891e3211-713c-4f5d-9709-6a3ae06b884c",
      "identifier": [ {
        "value": "J85990"
      } ],
      "type": [ {
        "text": "GP Practice"
      } ],
      "name": "Test Somerset"
    }
  }, {
    "fullUrl": "urn:uuid:4f1e0604-1eae-4db2-99a3-dfcb4a4654c4",
    "resource": {
      "resourceType": "Location",
      "id": "4f1e0604-1eae-4db2-99a3-dfcb4a4654c4",
      "name": "Incident Location",
      "address": {
        "type": "physical",
        "line": [ "NHS England", "Quarry House Quarry Hill", "Leeds", "West Yorkshire" ],
        "postalCode": "LS2 7UE"
      }
    }
  }, {
    "fullUrl": "urn:uuid:a2bc7d93-c9fd-4967-a86f-01e24e39c56e",
    "resource": {
      "resourceType": "Patient",
      "id": "a2bc7d93-c9fd-4967-a86f-01e24e39c56e",
      "identifier": [ {
        "extension": [ {
          "url": "https://fhir.hl7.org.uk/STU3/StructureDefinition/Extension-CareConnect-NHSNumberVerificationStatus-1",
          "valueCodeableConcept": {
            "coding": [ {
              "system": "https://fhir.hl7.org.uk/STU3/StructureDefinition/Extension-CareConnect-NHSNumberVerificationStatus-1",
              "code": "02"
            } ]
          }
        } ],
        "system": "https://fhir.nhs.uk/Id/nhs-number",
        "value": "9990238359"
      } ],
      "active": true,
      "name": [ {
        "use": "official",
        "family": "Xxtestpatientdzadn",
        "given": [ "Scrdonotuse" ]
      } ],
      "telecom": [ {
        "system": "phone",
        "value": "tel:01702123456",
        "use": "home"
      }, {
        "system": "phone",
        "value": "tel:01702123456"
      } ],
      "gender": "female",
      "birthDate": "1965-02-17",
      "address": [ {
        "use": "home",
        "line": [ "NHS England", "Quarry House Quarry Hill", "Leeds", "West Yorkshire" ],
        "postalCode": "LS2 7UE"
      } ],
      "generalPractitioner": [ {
        "reference": "urn:uuid:8d76cf98-c871-497c-b1b6-164060b3ed9e"
      } ]
    }
  }, {
    "fullUrl": "urn:uuid:8d76cf98-c871-497c-b1b6-164060b3ed9e",
    "resource": {
      "resourceType": "Organization",
      "id": "8d76cf98-c871-497c-b1b6-164060b3ed9e",
      "identifier": [ {
        "value": "J85990"
      } ],
      "type": [ {
        "text": "GP Practice"
      } ],
      "name": "Test Somerset"
    }
  }, {
    "fullUrl": "urn:uuid:33567248-e3f8-4b3a-8bec-717a4a359956",
    "resource": {
      "resourceType": "HealthcareService",
      "id": "33567248-e3f8-4b3a-8bec-717a4a359956",
      "active": true,
      "providedBy": {
        "reference": "urn:uuid:f70b3344-9050-4b79-b73f-950bbd93910d"
      },
      "location": [ {
        "reference": "urn:uuid:587ad800-7d3c-45cc-8003-6177f590d7bf"
      } ],
      "name": "**TESTING ONLY** DO NOT SEND PATIENTS - ED Test Service for EDDI"
    }
  }, {
    "fullUrl": "urn:uuid:587ad800-7d3c-45cc-8003-6177f590d7bf",
    "resource": {
      "resourceType": "Location",
      "id": "587ad800-7d3c-45cc-8003-6177f590d7bf",
      "managingOrganization": {
        "reference": "urn:uuid:f70b3344-9050-4b79-b73f-950bbd93910d"
      }
    }
  }, {
    "fullUrl": "urn:uuid:f70b3344-9050-4b79-b73f-950bbd93910d",
    "resource": {
      "resourceType": "Organization",
      "id": "f70b3344-9050-4b79-b73f-950bbd93910d",
      "identifier": [ {
        "value": "20000729"
      } ],
      "type": [ {
        "coding": [ {
          "code": "PRCP",
          "display": "**TESTING ONLY** DO NOT SEND PATIENTS - ED Test Service for EDDI"
        } ]
      } ],
      "name": "**TESTING ONLY** DO NOT SEND PATIENTS - ED Test Service for EDDI"
    }
  }, {
    "fullUrl": "urn:uuid:898e8102-f2b8-417b-a6ed-7cb078ae993a",
    "resource": {
      "resourceType": "ReferralRequest",
      "id": "898e8102-f2b8-417b-a6ed-7cb078ae993a",
      "status": "active",
      "intent": "plan",
      "priority": "routine",
      "subject": {
        "reference": "urn:uuid:a2bc7d93-c9fd-4967-a86f-01e24e39c56e"
      },
      "context": {
        "reference": "urn:uuid:f5d46de8-0a51-4dc2-a661-adcbaa5df5b7"
      },
      "occurrencePeriod": {
        "start": "2021-10-01T07:34:04+00:00",
        "end": "2021-10-01T08:34:04+00:00"
      },
      "authoredOn": "2020-10-30T18:28:58+00:00",
      "requester": {
        "agent": {
          "reference": "urn:uuid:02dc6950-e42b-4a2d-976a-14d5c4f52cb9"
        },
        "onBehalfOf": {
          "reference": "urn:uuid:8b4271cc-5e93-4d31-8c1b-b71e89e05c7b"
        }
      },
      "recipient": [ {
        "reference": "urn:uuid:33567248-e3f8-4b3a-8bec-717a4a359956"
      } ],
      "reasonReference": [ {
        "reference": "urn:uuid:cbcddba8-2d76-4586-b18c-85142d125f53"
      } ],
      "supportingInfo": [ {
        "reference": "urn:uuid:346f02f9-5546-4f26-92e8-138b56516c2c"
      } ]
    }
  }, {
    "fullUrl": "urn:uuid:346f02f9-5546-4f26-92e8-138b56516c2c",
    "resource": {
      "resourceType": "ProcedureRequest",
      "id": "346f02f9-5546-4f26-92e8-138b56516c2c",
      "status": "active",
      "intent": "plan",
      "priority": "routine",
      "doNotPerform": false,
      "code": {
        "coding": [ {
          "system": "2.16.840.1.113883.2.1.3.2.4.17.325",
          "code": "Dx02",
          "display": "Attend a Treatment Centre within 1 hour"
        } ]
      },
      "subject": {
        "reference": "urn:uuid:a2bc7d93-c9fd-4967-a86f-01e24e39c56e"
      },
      "occurrencePeriod": {
        "start": "2021-10-01T07:34:04+00:00",
        "end": "2021-10-01T08:34:04+00:00"
      },
      "reasonReference": [ {
        "reference": "urn:uuid:cbcddba8-2d76-4586-b18c-85142d125f53"
      } ]
    }
  }, {
    "fullUrl": "urn:uuid:d3f3ecdc-4620-4a1e-9ecb-bf4ab8c4a7c8",
    "resource": {
      "resourceType": "Composition",
      "id": "d3f3ecdc-4620-4a1e-9ecb-bf4ab8c4a7c8",
      "identifier": {
        "use": "usual",
        "value": "B53175B4-0A4A-4503-A6CD-94333AA01645"
      },
      "status": "final",
      "type": {
        "coding": [ {
          "system": "http://snomed.info/sct",
          "code": "371531000",
          "display": "Report of clinical encounter (record artifact)"
        } ]
      },
      "subject": {
        "reference": "urn:uuid:a2bc7d93-c9fd-4967-a86f-01e24e39c56e"
      },
      "encounter": {
        "reference": "urn:uuid:f5d46de8-0a51-4dc2-a661-adcbaa5df5b7"
      },
      "date": "2021-10-01T07:34:04+00:00",
      "author": [ {
        "reference": "urn:uuid:d5e856e3-09ad-4ce5-974d-195668cd104e"
      } ],
      "title": "111 Report",
      "confidentiality": "N",
      "section": [ {
        "section": [ {
          "title": "Patient's Reported Condition",
          "text": {
            "status": "generated",
            "div": "<div xmlns=\"http://www.w3.org/1999/xhtml\">TEST&lt;br/&gt;</div>"
          }
        }, {
          "title": "Pathways Disposition",
          "text": {
            "status": "generated",
            "div": "<div xmlns=\"http://www.w3.org/1999/xhtml\">Attend a Treatment Centre within 1 hour (Dx02)\n                                                    &lt;br/&gt;&lt;br/&gt;\n                                                    Selected service: **TESTING ONLY** DO NOT SEND PATIENTS - ED Test Se&lt;br/&gt;</div>"
          }
        }, {
          "title": "Consultation Summary",
          "text": {
            "status": "generated",
            "div": "<div xmlns=\"http://www.w3.org/1999/xhtml\">Illness&lt;br/&gt;Warm to touch&lt;br/&gt;Nose bleeding freely&lt;br/&gt;Nose bleeding despite first aid measures&lt;br/&gt;</div>"
          }
        }, {
          "title": "Pathways Assessment",
          "text": {
            "status": "generated",
            "div": "<div xmlns=\"http://www.w3.org/1999/xhtml\">An injury or health problem was the reason for the contact.&lt;br/&gt;Heavy bleeding had not occurred in the previous 2 hours.&lt;br/&gt;An illness or health problem was the main problem.&lt;br/&gt;User Comments: TEST&lt;br/&gt;The individual was not fighting for breath.&lt;br/&gt;The main reason for the assessment was not an allergic reaction, heart attack, chest/upper back pain, probable stroke, recent fit/seizure or suicide attempt.&lt;br/&gt;The main reason for contact was not new confusion, declared diabetic hypo/hyperglycaemia, or ICD shock.&lt;br/&gt;The skin on the torso felt normal, warm or hot.&lt;br/&gt;Pathway selected - Nosebleeds without Injury&lt;br/&gt;The individual was not feeling faint or dizzy.&lt;br/&gt;The nose was continuing to bleed.&lt;br/&gt;There was no nasal foreign body.&lt;br/&gt;Constant pressure had been applied to the soft part of the nose for at least 10 minutes.&lt;br/&gt;Instructions given were: The individual needs to attend a treatment centre within 1 hour.&lt;br/&gt;Directory of Services referral: **TESTING ONLY** DO NOT SEND PATIENTS - ED Test Service for EDDI&lt;br/&gt;Advice given:\n                                                    Worsening\n                                                    &lt;br/&gt;</div>"
          }
        }, {
          "title": "Advice Given",
          "text": {
            "status": "generated",
            "div": "<div xmlns=\"http://www.w3.org/1999/xhtml\">If there are any new symptoms, or if the condition gets worse, changes or you have any other concerns, call us back.&lt;br/&gt;&lt;br/&gt;</div>"
          }
        }, {
          "title": "Special Patient Notes",
          "text": {
            "status": "generated",
            "div": "<div xmlns=\"http://www.w3.org/1999/xhtml\">Special Notes from an external system were flagged as being present for this patient.</div>"
          }
        } ]
      }, {
        "title": "ReferralRequest",
        "entry": [ {
          "reference": "urn:uuid:898e8102-f2b8-417b-a6ed-7cb078ae993a"
        } ]
      }, {
        "title": "QuestionnaireResponse",
        "entry": [ {
          "reference": "urn:uuid:22d100d4-bd33-448b-a554-c4b95d719377"
        } ]
      }, {
        "title": "QuestionnaireResponse",
        "entry": [ {
          "reference": "urn:uuid:fc9be1a8-5104-4162-bc80-f3c9806302c2"
        } ]
      }, {
        "title": "QuestionnaireResponse",
        "entry": [ {
          "reference": "urn:uuid:f0e15d3b-522b-444c-a9fd-b86a9ed7fe3a"
        } ]
      }, {
        "title": "QuestionnaireResponse",
        "entry": [ {
          "reference": "urn:uuid:541b8c10-7b10-42a7-943f-766225872880"
        } ]
      }, {
        "title": "QuestionnaireResponse",
        "entry": [ {
          "reference": "urn:uuid:a9147beb-613f-4c45-96c5-245718f95780"
        } ]
      }, {
        "title": "QuestionnaireResponse",
        "entry": [ {
          "reference": "urn:uuid:64702e6e-bab6-4fac-bc99-a4dc6cbb2fdc"
        } ]
      }, {
        "title": "QuestionnaireResponse",
        "entry": [ {
          "reference": "urn:uuid:2accdde9-6f51-41bb-acb4-4c5d30f69d8d"
        } ]
      }, {
        "title": "QuestionnaireResponse",
        "entry": [ {
          "reference": "urn:uuid:987b4f7d-b9b0-43b3-bc5d-20f713b055c2"
        } ]
      }, {
        "title": "QuestionnaireResponse",
        "entry": [ {
          "reference": "urn:uuid:a42156c4-59b5-40df-b17f-a81b8a7fddd8"
        } ]
      }, {
        "title": "QuestionnaireResponse",
        "entry": [ {
          "reference": "urn:uuid:d36e63a2-806a-4a2b-90f5-46e0c0c5c496"
        } ]
      }, {
        "title": "QuestionnaireResponse",
        "entry": [ {
          "reference": "urn:uuid:d5d27d70-e2ee-4b16-87dd-41ab02b7761d"
        } ]
      }, {
        "title": "QuestionnaireResponse",
        "entry": [ {
          "reference": "urn:uuid:c6ee993e-d6fd-4aee-9bea-60b7cae1570a"
        } ]
      }, {
        "title": "QuestionnaireResponse",
        "entry": [ {
          "reference": "urn:uuid:068d849b-951f-46c8-baa5-da001b7f3243"
        } ]
      }, {
        "title": "QuestionnaireResponse",
        "entry": [ {
          "reference": "urn:uuid:08730460-c9b2-4764-8ef0-1f927e788ae3"
        } ]
      }, {
        "title": "QuestionnaireResponse",
        "entry": [ {
          "reference": "urn:uuid:2fec63d6-b95e-4e5f-81a3-3f631762b94a"
        } ]
      }, {
        "title": "QuestionnaireResponse",
        "entry": [ {
          "reference": "urn:uuid:abeed122-0e12-4233-beeb-57debbb9f421"
        } ]
      }, {
        "title": "QuestionnaireResponse",
        "entry": [ {
          "reference": "urn:uuid:27e9db87-cb71-40e9-b34c-40b59b386490"
        } ]
      }, {
        "title": "QuestionnaireResponse",
        "entry": [ {
          "reference": "urn:uuid:8539cfee-72f4-4b9c-848a-b99c8c6554e5"
        } ]
      }, {
        "title": "QuestionnaireResponse",
        "entry": [ {
          "reference": "urn:uuid:119edd55-59b4-4f48-bf7b-8a67057175d2"
        } ]
      }, {
        "title": "QuestionnaireResponse",
        "entry": [ {
          "reference": "urn:uuid:b0a9d496-2077-45b0-b805-3bd6d7b47157"
        } ]
      }, {
        "title": "QuestionnaireResponse",
        "entry": [ {
          "reference": "urn:uuid:6c5035d2-6560-4909-94c2-041ea040ebe1"
        } ]
      }, {
        "title": "QuestionnaireResponse",
        "entry": [ {
          "reference": "urn:uuid:a4c23ae6-f61b-4523-9d6d-ef04df291008"
        } ]
      }, {
        "title": "QuestionnaireResponse",
        "entry": [ {
          "reference": "urn:uuid:e5ed624d-8aba-4b9b-818f-1ede47dac6a1"
        } ]
      } ]
    }
  }, {
    "fullUrl": "urn:uuid:5b395a47-cb70-486d-9c7a-60cad403cb29",
    "resource": {
      "resourceType": "Consent",
      "id": "5b395a47-cb70-486d-9c7a-60cad403cb29",
      "identifier": {
        "use": "usual",
        "value": "B53175B4-0A4A-4503-A6CD-94333AA01645"
      },
      "status": "active",
      "patient": {
        "reference": "urn:uuid:a2bc7d93-c9fd-4967-a86f-01e24e39c56e"
      },
      "period": {
        "start": "2020-10-30T18:29:05+00:00"
      },
      "consentingParty": [ {
        "reference": "urn:uuid:a2bc7d93-c9fd-4967-a86f-01e24e39c56e"
      } ],
      "action": [ {
        "coding": [ {
          "system": "http://snomed.info/sct",
          "code": "425691002",
          "display": "Consent given for electronic record sharing"
        } ],
        "text": "Consent given for electronic record sharing"
      } ],
      "organization": [ {
        "reference": "urn:uuid:8b4271cc-5e93-4d31-8c1b-b71e89e05c7b"
      } ],
      "policyRule": "http://hl7.org/fhir/ConsentPolicy/opt-out",
      "data": [ {
        "meaning": "related",
        "reference": {
          "reference": "urn:uuid:f5d46de8-0a51-4dc2-a661-adcbaa5df5b7"
        }
      } ]
    }
  }, {
    "fullUrl": "urn:uuid:cbcddba8-2d76-4586-b18c-85142d125f53",
    "resource": {
      "resourceType": "Condition",
      "id": "cbcddba8-2d76-4586-b18c-85142d125f53",
      "clinicalStatus": "active",
      "verificationStatus": "unknown",
      "subject": {
        "reference": "urn:uuid:a2bc7d93-c9fd-4967-a86f-01e24e39c56e"
      },
      "context": {
        "reference": "urn:uuid:f5d46de8-0a51-4dc2-a661-adcbaa5df5b7"
      },
      "evidence": [ {
        "detail": [ {
          "reference": "urn:uuid:22d100d4-bd33-448b-a554-c4b95d719377"
        } ]
      }, {
        "detail": [ {
          "reference": "urn:uuid:fc9be1a8-5104-4162-bc80-f3c9806302c2"
        } ]
      }, {
        "detail": [ {
          "reference": "urn:uuid:f0e15d3b-522b-444c-a9fd-b86a9ed7fe3a"
        } ]
      }, {
        "detail": [ {
          "reference": "urn:uuid:541b8c10-7b10-42a7-943f-766225872880"
        } ]
      }, {
        "detail": [ {
          "reference": "urn:uuid:a9147beb-613f-4c45-96c5-245718f95780"
        } ]
      }, {
        "detail": [ {
          "reference": "urn:uuid:64702e6e-bab6-4fac-bc99-a4dc6cbb2fdc"
        } ]
      }, {
        "detail": [ {
          "reference": "urn:uuid:2accdde9-6f51-41bb-acb4-4c5d30f69d8d"
        } ]
      }, {
        "detail": [ {
          "reference": "urn:uuid:987b4f7d-b9b0-43b3-bc5d-20f713b055c2"
        } ]
      }, {
        "detail": [ {
          "reference": "urn:uuid:a42156c4-59b5-40df-b17f-a81b8a7fddd8"
        } ]
      }, {
        "detail": [ {
          "reference": "urn:uuid:d36e63a2-806a-4a2b-90f5-46e0c0c5c496"
        } ]
      }, {
        "detail": [ {
          "reference": "urn:uuid:d5d27d70-e2ee-4b16-87dd-41ab02b7761d"
        } ]
      }, {
        "detail": [ {
          "reference": "urn:uuid:c6ee993e-d6fd-4aee-9bea-60b7cae1570a"
        } ]
      }, {
        "detail": [ {
          "reference": "urn:uuid:068d849b-951f-46c8-baa5-da001b7f3243"
        } ]
      }, {
        "detail": [ {
          "reference": "urn:uuid:08730460-c9b2-4764-8ef0-1f927e788ae3"
        } ]
      }, {
        "detail": [ {
          "reference": "urn:uuid:2fec63d6-b95e-4e5f-81a3-3f631762b94a"
        } ]
      }, {
        "detail": [ {
          "reference": "urn:uuid:abeed122-0e12-4233-beeb-57debbb9f421"
        } ]
      }, {
        "detail": [ {
          "reference": "urn:uuid:27e9db87-cb71-40e9-b34c-40b59b386490"
        } ]
      }, {
        "detail": [ {
          "reference": "urn:uuid:8539cfee-72f4-4b9c-848a-b99c8c6554e5"
        } ]
      }, {
        "detail": [ {
          "reference": "urn:uuid:119edd55-59b4-4f48-bf7b-8a67057175d2"
        } ]
      }, {
        "detail": [ {
          "reference": "urn:uuid:b0a9d496-2077-45b0-b805-3bd6d7b47157"
        } ]
      }, {
        "detail": [ {
          "reference": "urn:uuid:6c5035d2-6560-4909-94c2-041ea040ebe1"
        } ]
      }, {
        "detail": [ {
          "reference": "urn:uuid:a4c23ae6-f61b-4523-9d6d-ef04df291008"
        } ]
      }, {
        "detail": [ {
          "reference": "urn:uuid:e5ed624d-8aba-4b9b-818f-1ede47dac6a1"
        } ]
      } ]
    }
  }, {
    "fullUrl": "urn:uuid:22d100d4-bd33-448b-a554-c4b95d719377",
    "resource": {
      "resourceType": "QuestionnaireResponse",
      "id": "22d100d4-bd33-448b-a554-c4b95d719377",
      "identifier": {
        "value": "7434927"
      },
      "questionnaire": {
        "reference": "urn:uuid:24bdfef3-4c16-4572-8eeb-8c4eeaf3f201"
      },
      "status": "completed",
      "subject": {
        "reference": "urn:uuid:a2bc7d93-c9fd-4967-a86f-01e24e39c56e"
      },
      "context": {
        "reference": "urn:uuid:f5d46de8-0a51-4dc2-a661-adcbaa5df5b7"
      },
      "authored": "2020-10-30T18:29:05+00:00",
      "item": [ {
        "linkId": "Tx220074",
        "text": "What is the reason for the contact?",
        "answer": [ {
          "valueString": "an injury or other health problem"
        } ]
      } ]
    }
  }, {
    "fullUrl": "urn:uuid:24bdfef3-4c16-4572-8eeb-8c4eeaf3f201",
    "resource": {
      "resourceType": "Questionnaire",
      "id": "24bdfef3-4c16-4572-8eeb-8c4eeaf3f201",
      "identifier": [ {
        "value": "7434927"
      } ],
      "version": "2020-10-30T18:29:05.808Z",
      "status": "active",
      "experimental": false,
      "date": "2020-10-30T18:29:05+00:00",
      "publisher": "User ID: 'RB12' User name: 'Rachel Boyer' User skill set: 'T3'",
      "lastReviewDate": "2020-10-30",
      "subjectType": [ "Patient" ],
      "item": [ {
        "linkId": "7434927",
        "prefix": "5",
        "text": "What is the reason for the contact?",
        "type": "choice",
        "required": true,
        "repeats": false,
        "option": [ {
          "valueString": "an injury or other health problem, Selected: true"
        }, {
          "valueString": "labour or childbirth, Selected: false"
        }, {
          "valueString": "a need to access another healthcare service, Selected: false"
        }, {
          "valueString": "a healthcare professional requesting contact with another clinician, Selected: false"
        }, {
          "valueString": "a report of results or tests, Selected: false"
        }, {
          "valueString": "a possible failure of contraception, Selected: false"
        }, {
          "valueString": "more, Selected: false"
        } ]
      } ]
    }
  }, {
    "fullUrl": "urn:uuid:fc9be1a8-5104-4162-bc80-f3c9806302c2",
    "resource": {
      "resourceType": "QuestionnaireResponse",
      "id": "fc9be1a8-5104-4162-bc80-f3c9806302c2",
      "identifier": {
        "value": "7434927"
      },
      "questionnaire": {
        "reference": "urn:uuid:7c3667d6-d2fe-4250-b363-a6e8bffb2f48"
      },
      "status": "completed",
      "subject": {
        "reference": "urn:uuid:a2bc7d93-c9fd-4967-a86f-01e24e39c56e"
      },
      "context": {
        "reference": "urn:uuid:f5d46de8-0a51-4dc2-a661-adcbaa5df5b7"
      },
      "authored": "2020-10-30T18:29:05+00:00",
      "item": [ {
        "linkId": "Tx221807",
        "text": "STRING:to'Immediatethreatstolife(SPA/OOHversion)'-'Majorbloodloss'stem",
        "answer": [ {
          "valueString": "\"present\""
        } ]
      } ]
    }
  }, {
    "fullUrl": "urn:uuid:7c3667d6-d2fe-4250-b363-a6e8bffb2f48",
    "resource": {
      "resourceType": "Questionnaire",
      "id": "7c3667d6-d2fe-4250-b363-a6e8bffb2f48",
      "identifier": [ {
        "value": "7434927"
      } ],
      "version": "2020-10-30T18:29:05.808Z",
      "status": "active",
      "experimental": false,
      "date": "2020-10-30T18:29:05+00:00",
      "publisher": "User ID: 'RB12' User name: 'Rachel Boyer' User skill set: 'T3'",
      "lastReviewDate": "2020-10-30",
      "subjectType": [ "Patient" ],
      "item": [ {
        "linkId": "7434927",
        "prefix": "200",
        "text": "STRING:to'Immediatethreatstolife(SPA/OOHversion)'-'Majorbloodloss'stem",
        "type": "choice",
        "required": true,
        "repeats": false,
        "option": [ {
          "valueString": "\"present\", Selected: true"
        } ]
      } ]
    }
  }, {
    "fullUrl": "urn:uuid:f0e15d3b-522b-444c-a9fd-b86a9ed7fe3a",
    "resource": {
      "resourceType": "QuestionnaireResponse",
      "id": "f0e15d3b-522b-444c-a9fd-b86a9ed7fe3a",
      "identifier": {
        "value": "7434927"
      },
      "questionnaire": {
        "reference": "urn:uuid:7dd2d57e-25e3-4277-9d29-27ccaacccfa1"
      },
      "status": "completed",
      "subject": {
        "reference": "urn:uuid:a2bc7d93-c9fd-4967-a86f-01e24e39c56e"
      },
      "context": {
        "reference": "urn:uuid:f5d46de8-0a51-4dc2-a661-adcbaa5df5b7"
      },
      "authored": "2020-10-30T18:29:05+00:00"
    }
  }, {
    "fullUrl": "urn:uuid:7dd2d57e-25e3-4277-9d29-27ccaacccfa1",
    "resource": {
      "resourceType": "Questionnaire",
      "id": "7dd2d57e-25e3-4277-9d29-27ccaacccfa1",
      "identifier": [ {
        "value": "7434927"
      } ],
      "version": "2020-10-30T18:29:05.808Z",
      "status": "active",
      "experimental": false,
      "date": "2020-10-30T18:29:05+00:00",
      "publisher": "User ID: 'RB12' User name: 'Rachel Boyer' User skill set: 'T3'",
      "lastReviewDate": "2020-10-30",
      "subjectType": [ "Patient" ]
    }
  }, {
    "fullUrl": "urn:uuid:541b8c10-7b10-42a7-943f-766225872880",
    "resource": {
      "resourceType": "QuestionnaireResponse",
      "id": "541b8c10-7b10-42a7-943f-766225872880",
      "identifier": {
        "value": "7434927"
      },
      "questionnaire": {
        "reference": "urn:uuid:f072a5e7-a038-4b26-93c0-fda6ba1d9f16"
      },
      "status": "completed",
      "subject": {
        "reference": "urn:uuid:a2bc7d93-c9fd-4967-a86f-01e24e39c56e"
      },
      "context": {
        "reference": "urn:uuid:f5d46de8-0a51-4dc2-a661-adcbaa5df5b7"
      },
      "authored": "2020-10-30T18:29:05+00:00",
      "item": [ {
        "linkId": "Tx221799",
        "text": "STRING:injury,illnessorlabourestablishedinEntryFlow",
        "answer": [ {
          "valueString": "\"present\""
        } ]
      } ]
    }
  }, {
    "fullUrl": "urn:uuid:f072a5e7-a038-4b26-93c0-fda6ba1d9f16",
    "resource": {
      "resourceType": "Questionnaire",
      "id": "f072a5e7-a038-4b26-93c0-fda6ba1d9f16",
      "identifier": [ {
        "value": "7434927"
      } ],
      "version": "2020-10-30T18:29:05.808Z",
      "status": "active",
      "experimental": false,
      "date": "2020-10-30T18:29:05+00:00",
      "publisher": "User ID: 'RB12' User name: 'Rachel Boyer' User skill set: 'T3'",
      "lastReviewDate": "2020-10-30",
      "subjectType": [ "Patient" ],
      "item": [ {
        "linkId": "7434927",
        "prefix": "0",
        "text": "STRING:injury,illnessorlabourestablishedinEntryFlow",
        "type": "choice",
        "required": true,
        "repeats": false,
        "option": [ {
          "valueString": "\"present\", Selected: true"
        } ]
      } ]
    }
  }, {
    "fullUrl": "urn:uuid:a9147beb-613f-4c45-96c5-245718f95780",
    "resource": {
      "resourceType": "QuestionnaireResponse",
      "id": "a9147beb-613f-4c45-96c5-245718f95780",
      "identifier": {
        "value": "7434927"
      },
      "questionnaire": {
        "reference": "urn:uuid:78a632fa-4283-4236-85b6-dbdf904b8898"
      },
      "status": "completed",
      "subject": {
        "reference": "urn:uuid:a2bc7d93-c9fd-4967-a86f-01e24e39c56e"
      },
      "context": {
        "reference": "urn:uuid:f5d46de8-0a51-4dc2-a661-adcbaa5df5b7"
      },
      "authored": "2020-10-30T18:29:05+00:00",
      "item": [ {
        "linkId": "Tx224120",
        "text": "Have you been bleeding RED BLOOD very heavily IN THE LAST 2 HOURS?",
        "answer": [ {
          "valueString": "no"
        } ]
      } ]
    }
  }, {
    "fullUrl": "urn:uuid:78a632fa-4283-4236-85b6-dbdf904b8898",
    "resource": {
      "resourceType": "Questionnaire",
      "id": "78a632fa-4283-4236-85b6-dbdf904b8898",
      "identifier": [ {
        "value": "7434927"
      } ],
      "version": "2020-10-30T18:29:05.808Z",
      "status": "active",
      "experimental": false,
      "date": "2020-10-30T18:29:05+00:00",
      "publisher": "User ID: 'RB12' User name: 'Rachel Boyer' User skill set: 'T3'",
      "lastReviewDate": "2020-10-30",
      "subjectType": [ "Patient" ],
      "item": [ {
        "linkId": "7434927",
        "prefix": "10100",
        "text": "Have you been bleeding RED BLOOD very heavily IN THE LAST 2 HOURS?",
        "type": "choice",
        "required": true,
        "repeats": false,
        "option": [ {
          "valueString": "yes, Selected: false"
        }, {
          "valueString": "not sure, Selected: false"
        }, {
          "valueString": "no, Selected: true"
        } ]
      } ]
    }
  }, {
    "fullUrl": "urn:uuid:64702e6e-bab6-4fac-bc99-a4dc6cbb2fdc",
    "resource": {
      "resourceType": "QuestionnaireResponse",
      "id": "64702e6e-bab6-4fac-bc99-a4dc6cbb2fdc",
      "identifier": {
        "value": "7434927"
      },
      "questionnaire": {
        "reference": "urn:uuid:4e00ffba-d436-428e-848a-cc0dc128473a"
      },
      "status": "completed",
      "subject": {
        "reference": "urn:uuid:a2bc7d93-c9fd-4967-a86f-01e24e39c56e"
      },
      "context": {
        "reference": "urn:uuid:f5d46de8-0a51-4dc2-a661-adcbaa5df5b7"
      },
      "authored": "2020-10-30T18:29:05+00:00",
      "item": [ {
        "linkId": "Tx221343",
        "text": "SocialConcernsExcluded",
        "answer": [ {
          "valueString": "==\"present\""
        } ]
      } ]
    }
  }, {
    "fullUrl": "urn:uuid:4e00ffba-d436-428e-848a-cc0dc128473a",
    "resource": {
      "resourceType": "Questionnaire",
      "id": "4e00ffba-d436-428e-848a-cc0dc128473a",
      "identifier": [ {
        "value": "7434927"
      } ],
      "version": "2020-10-30T18:29:05.808Z",
      "status": "active",
      "experimental": false,
      "date": "2020-10-30T18:29:05+00:00",
      "publisher": "User ID: 'RB12' User name: 'Rachel Boyer' User skill set: 'T3'",
      "lastReviewDate": "2020-10-30",
      "subjectType": [ "Patient" ],
      "item": [ {
        "linkId": "7434927",
        "prefix": "1100",
        "text": "SocialConcernsExcluded",
        "type": "choice",
        "required": true,
        "repeats": false,
        "option": [ {
          "valueString": "==\"present\", Selected: true"
        }, {
          "valueString": "*, Selected: false"
        } ]
      } ]
    }
  }, {
    "fullUrl": "urn:uuid:2accdde9-6f51-41bb-acb4-4c5d30f69d8d",
    "resource": {
      "resourceType": "QuestionnaireResponse",
      "id": "2accdde9-6f51-41bb-acb4-4c5d30f69d8d",
      "identifier": {
        "value": "7434927"
      },
      "questionnaire": {
        "reference": "urn:uuid:2e384060-404a-4aa6-b5fb-2695188d5b23"
      },
      "status": "completed",
      "subject": {
        "reference": "urn:uuid:a2bc7d93-c9fd-4967-a86f-01e24e39c56e"
      },
      "context": {
        "reference": "urn:uuid:f5d46de8-0a51-4dc2-a661-adcbaa5df5b7"
      },
      "authored": "2020-10-30T18:29:05+00:00",
      "item": [ {
        "linkId": "Tx130011",
        "text": "What is the main problem?",
        "answer": [ {
          "valueString": "illness or other health problem (specify)"
        } ]
      } ]
    }
  }, {
    "fullUrl": "urn:uuid:2e384060-404a-4aa6-b5fb-2695188d5b23",
    "resource": {
      "resourceType": "Questionnaire",
      "id": "2e384060-404a-4aa6-b5fb-2695188d5b23",
      "identifier": [ {
        "value": "7434927"
      } ],
      "version": "2020-10-30T18:29:05.808Z",
      "status": "active",
      "experimental": false,
      "date": "2020-10-30T18:29:05+00:00",
      "publisher": "User ID: 'RB12' User name: 'Rachel Boyer' User skill set: 'T3'",
      "lastReviewDate": "2020-10-30",
      "subjectType": [ "Patient" ],
      "item": [ {
        "linkId": "7434927",
        "prefix": "2300",
        "text": "What is the main problem?",
        "type": "choice",
        "required": true,
        "repeats": false,
        "option": [ {
          "valueString": "the individual has been told to follow a particular course of action (specify), Selected: false"
        }, {
          "valueString": "the individual is an identified frequent caller, Selected: false"
        }, {
          "valueString": "injury (specify), Selected: false"
        }, {
          "valueString": "illness or other health problem (specify), Selected: true"
        }, {
          "valueString": "child protection/vulnerable adult concern, Selected: false"
        }, {
          "valueString": "social or domestic emergency, Selected: false"
        }, {
          "valueString": "the environment potentially poses an immediate threat to life (specify), Selected: false"
        } ]
      } ]
    }
  }, {
    "fullUrl": "urn:uuid:987b4f7d-b9b0-43b3-bc5d-20f713b055c2",
    "resource": {
      "resourceType": "QuestionnaireResponse",
      "id": "987b4f7d-b9b0-43b3-bc5d-20f713b055c2",
      "identifier": {
        "value": "7434927"
      },
      "questionnaire": {
        "reference": "urn:uuid:bfa7d7d5-5186-43b6-8589-bce5f125d63f"
      },
      "status": "completed",
      "subject": {
        "reference": "urn:uuid:a2bc7d93-c9fd-4967-a86f-01e24e39c56e"
      },
      "context": {
        "reference": "urn:uuid:f5d46de8-0a51-4dc2-a661-adcbaa5df5b7"
      },
      "authored": "2020-10-30T18:29:05+00:00"
    }
  }, {
    "fullUrl": "urn:uuid:bfa7d7d5-5186-43b6-8589-bce5f125d63f",
    "resource": {
      "resourceType": "Questionnaire",
      "id": "bfa7d7d5-5186-43b6-8589-bce5f125d63f",
      "identifier": [ {
        "value": "7434927"
      } ],
      "version": "2020-10-30T18:29:05.808Z",
      "status": "active",
      "experimental": false,
      "date": "2020-10-30T18:29:05+00:00",
      "publisher": "User ID: 'RB12' User name: 'Rachel Boyer' User skill set: 'T3'",
      "lastReviewDate": "2020-10-30",
      "subjectType": [ "Patient" ]
    }
  }, {
    "fullUrl": "urn:uuid:a42156c4-59b5-40df-b17f-a81b8a7fddd8",
    "resource": {
      "resourceType": "QuestionnaireResponse",
      "id": "a42156c4-59b5-40df-b17f-a81b8a7fddd8",
      "identifier": {
        "value": "7434927"
      },
      "questionnaire": {
        "reference": "urn:uuid:f8f2e9d9-9705-4a11-a82f-563b156a1a05"
      },
      "status": "completed",
      "subject": {
        "reference": "urn:uuid:a2bc7d93-c9fd-4967-a86f-01e24e39c56e"
      },
      "context": {
        "reference": "urn:uuid:f5d46de8-0a51-4dc2-a661-adcbaa5df5b7"
      },
      "authored": "2020-10-30T18:29:05+00:00",
      "item": [ {
        "linkId": "Tx61025",
        "text": "Are you so breathless that speaking more than a few words is impossible?",
        "answer": [ {
          "valueString": "no"
        } ]
      } ]
    }
  }, {
    "fullUrl": "urn:uuid:f8f2e9d9-9705-4a11-a82f-563b156a1a05",
    "resource": {
      "resourceType": "Questionnaire",
      "id": "f8f2e9d9-9705-4a11-a82f-563b156a1a05",
      "identifier": [ {
        "value": "7434927"
      } ],
      "version": "2020-10-30T18:29:05.808Z",
      "status": "active",
      "experimental": false,
      "date": "2020-10-30T18:29:05+00:00",
      "publisher": "User ID: 'RB12' User name: 'Rachel Boyer' User skill set: 'T3'",
      "lastReviewDate": "2020-10-30",
      "subjectType": [ "Patient" ],
      "item": [ {
        "linkId": "7434927",
        "prefix": "0",
        "text": "Are you so breathless that speaking more than a few words is impossible?",
        "type": "choice",
        "required": true,
        "repeats": false,
        "option": [ {
          "valueString": "yes, Selected: false"
        }, {
          "valueString": "not sure, Selected: false"
        }, {
          "valueString": "no, Selected: true"
        } ]
      } ]
    }
  }, {
    "fullUrl": "urn:uuid:d36e63a2-806a-4a2b-90f5-46e0c0c5c496",
    "resource": {
      "resourceType": "QuestionnaireResponse",
      "id": "d36e63a2-806a-4a2b-90f5-46e0c0c5c496",
      "identifier": {
        "value": "7434927"
      },
      "questionnaire": {
        "reference": "urn:uuid:c308794a-c25c-4ec8-aeac-16ee5e526bfc"
      },
      "status": "completed",
      "subject": {
        "reference": "urn:uuid:a2bc7d93-c9fd-4967-a86f-01e24e39c56e"
      },
      "context": {
        "reference": "urn:uuid:f5d46de8-0a51-4dc2-a661-adcbaa5df5b7"
      },
      "authored": "2020-10-30T18:29:05+00:00",
      "item": [ {
        "linkId": "Tx220845",
        "text": "SYSTEM_FLUPANDEMIC",
        "answer": [ {
          "valueString": "==\"pandemic\""
        } ]
      } ]
    }
  }, {
    "fullUrl": "urn:uuid:c308794a-c25c-4ec8-aeac-16ee5e526bfc",
    "resource": {
      "resourceType": "Questionnaire",
      "id": "c308794a-c25c-4ec8-aeac-16ee5e526bfc",
      "identifier": [ {
        "value": "7434927"
      } ],
      "version": "2020-10-30T18:29:05.808Z",
      "status": "active",
      "experimental": false,
      "date": "2020-10-30T18:29:05+00:00",
      "publisher": "User ID: 'RB12' User name: 'Rachel Boyer' User skill set: 'T3'",
      "lastReviewDate": "2020-10-30",
      "subjectType": [ "Patient" ],
      "item": [ {
        "linkId": "7434927",
        "prefix": "100",
        "text": "SYSTEM_FLUPANDEMIC",
        "type": "choice",
        "required": true,
        "repeats": false,
        "option": [ {
          "valueString": "==\"pandemic\", Selected: true"
        }, {
          "valueString": "*, Selected: false"
        } ]
      } ]
    }
  }, {
    "fullUrl": "urn:uuid:d5d27d70-e2ee-4b16-87dd-41ab02b7761d",
    "resource": {
      "resourceType": "QuestionnaireResponse",
      "id": "d5d27d70-e2ee-4b16-87dd-41ab02b7761d",
      "identifier": {
        "value": "7434927"
      },
      "questionnaire": {
        "reference": "urn:uuid:0921e96d-4a10-4942-83bf-afe3ce695c19"
      },
      "status": "completed",
      "subject": {
        "reference": "urn:uuid:a2bc7d93-c9fd-4967-a86f-01e24e39c56e"
      },
      "context": {
        "reference": "urn:uuid:f5d46de8-0a51-4dc2-a661-adcbaa5df5b7"
      },
      "authored": "2020-10-30T18:29:05+00:00",
      "item": [ {
        "linkId": "Tx223440",
        "text": "WHAT IS SAID TO BE THE MAIN REASON FOR THIS CONTACT?",
        "answer": [ {
          "valueString": "more"
        } ]
      } ]
    }
  }, {
    "fullUrl": "urn:uuid:0921e96d-4a10-4942-83bf-afe3ce695c19",
    "resource": {
      "resourceType": "Questionnaire",
      "id": "0921e96d-4a10-4942-83bf-afe3ce695c19",
      "identifier": [ {
        "value": "7434927"
      } ],
      "version": "2020-10-30T18:29:05.808Z",
      "status": "active",
      "experimental": false,
      "date": "2020-10-30T18:29:05+00:00",
      "publisher": "User ID: 'RB12' User name: 'Rachel Boyer' User skill set: 'T3'",
      "lastReviewDate": "2020-10-30",
      "subjectType": [ "Patient" ],
      "item": [ {
        "linkId": "7434927",
        "prefix": "5200",
        "text": "WHAT IS SAID TO BE THE MAIN REASON FOR THIS CONTACT?",
        "type": "choice",
        "required": true,
        "repeats": false,
        "option": [ {
          "valueString": "a probable allergic reaction now, Selected: false"
        }, {
          "valueString": "a probable heart attack, Selected: false"
        }, {
          "valueString": "chest or upper back pain, Selected: false"
        }, {
          "valueString": "a probable stroke or mini-stroke, Selected: false"
        }, {
          "valueString": "a probable fit or seizure within the last 12 hours, Selected: false"
        }, {
          "valueString": "a suicide attempt, Selected: false"
        }, {
          "valueString": "more, Selected: true"
        } ]
      } ]
    }
  }, {
    "fullUrl": "urn:uuid:c6ee993e-d6fd-4aee-9bea-60b7cae1570a",
    "resource": {
      "resourceType": "QuestionnaireResponse",
      "id": "c6ee993e-d6fd-4aee-9bea-60b7cae1570a",
      "identifier": {
        "value": "7434927"
      },
      "questionnaire": {
        "reference": "urn:uuid:094d1193-6189-4ff2-825b-4481d792a426"
      },
      "status": "completed",
      "subject": {
        "reference": "urn:uuid:a2bc7d93-c9fd-4967-a86f-01e24e39c56e"
      },
      "context": {
        "reference": "urn:uuid:f5d46de8-0a51-4dc2-a661-adcbaa5df5b7"
      },
      "authored": "2020-10-30T18:29:05+00:00",
      "item": [ {
        "linkId": "Tx220032",
        "text": "WHAT IS SAID TO BE THE MAIN REASON FOR THIS CONTACT?",
        "answer": [ {
          "valueString": "none of the above"
        } ]
      } ]
    }
  }, {
    "fullUrl": "urn:uuid:094d1193-6189-4ff2-825b-4481d792a426",
    "resource": {
      "resourceType": "Questionnaire",
      "id": "094d1193-6189-4ff2-825b-4481d792a426",
      "identifier": [ {
        "value": "7434927"
      } ],
      "version": "2020-10-30T18:29:05.808Z",
      "status": "active",
      "experimental": false,
      "date": "2020-10-30T18:29:05+00:00",
      "publisher": "User ID: 'RB12' User name: 'Rachel Boyer' User skill set: 'T3'",
      "lastReviewDate": "2020-10-30",
      "subjectType": [ "Patient" ],
      "item": [ {
        "linkId": "7434927",
        "prefix": "2200",
        "text": "WHAT IS SAID TO BE THE MAIN REASON FOR THIS CONTACT?",
        "type": "choice",
        "required": true,
        "repeats": false,
        "option": [ {
          "valueString": "new confusion now, Selected: false"
        }, {
          "valueString": "a diabetic hypo (low blood sugar) or a diabetic hyper (high blood sugar), Selected: false"
        }, {
          "valueString": "recovery from an ICD (implanted cardioverter defibrillator) shock, Selected: false"
        }, {
          "valueString": "none of the above, Selected: true"
        } ]
      } ]
    }
  }, {
    "fullUrl": "urn:uuid:068d849b-951f-46c8-baa5-da001b7f3243",
    "resource": {
      "resourceType": "QuestionnaireResponse",
      "id": "068d849b-951f-46c8-baa5-da001b7f3243",
      "identifier": {
        "value": "7434927"
      },
      "questionnaire": {
        "reference": "urn:uuid:158759fa-d609-44b4-8013-27c7512700c3"
      },
      "status": "completed",
      "subject": {
        "reference": "urn:uuid:a2bc7d93-c9fd-4967-a86f-01e24e39c56e"
      },
      "context": {
        "reference": "urn:uuid:f5d46de8-0a51-4dc2-a661-adcbaa5df5b7"
      },
      "authored": "2020-10-30T18:29:05+00:00",
      "item": [ {
        "linkId": "Tx223142",
        "text": "Does the skin on the chest, back or abdomen feel a normal temperature?",
        "answer": [ {
          "valueString": "yes - normal, warm or hot"
        } ]
      } ]
    }
  }, {
    "fullUrl": "urn:uuid:158759fa-d609-44b4-8013-27c7512700c3",
    "resource": {
      "resourceType": "Questionnaire",
      "id": "158759fa-d609-44b4-8013-27c7512700c3",
      "identifier": [ {
        "value": "7434927"
      } ],
      "version": "2020-10-30T18:29:05.808Z",
      "status": "active",
      "experimental": false,
      "date": "2020-10-30T18:29:05+00:00",
      "publisher": "User ID: 'RB12' User name: 'Rachel Boyer' User skill set: 'T3'",
      "lastReviewDate": "2020-10-30",
      "subjectType": [ "Patient" ],
      "item": [ {
        "linkId": "7434927",
        "prefix": "4200",
        "text": "Does the skin on the chest, back or abdomen feel a normal temperature?",
        "type": "choice",
        "required": true,
        "repeats": false,
        "option": [ {
          "valueString": "yes - normal, warm or hot, Selected: true"
        }, {
          "valueString": "not sure, Selected: false"
        }, {
          "valueString": "no - cool OR cold, Selected: false"
        }, {
          "valueString": "not safe to touch, Selected: false"
        } ]
      } ]
    }
  }, {
    "fullUrl": "urn:uuid:08730460-c9b2-4764-8ef0-1f927e788ae3",
    "resource": {
      "resourceType": "QuestionnaireResponse",
      "id": "08730460-c9b2-4764-8ef0-1f927e788ae3",
      "identifier": {
        "value": "7434927"
      },
      "questionnaire": {
        "reference": "urn:uuid:722d6183-8b04-40e7-897c-572f9b171015"
      },
      "status": "completed",
      "subject": {
        "reference": "urn:uuid:a2bc7d93-c9fd-4967-a86f-01e24e39c56e"
      },
      "context": {
        "reference": "urn:uuid:f5d46de8-0a51-4dc2-a661-adcbaa5df5b7"
      },
      "authored": "2020-10-30T18:29:05+00:00",
      "item": [ {
        "linkId": "Tx221724",
        "text": "STRING:ShockAsked",
        "answer": [ {
          "valueString": "\"present\""
        } ]
      } ]
    }
  }, {
    "fullUrl": "urn:uuid:722d6183-8b04-40e7-897c-572f9b171015",
    "resource": {
      "resourceType": "Questionnaire",
      "id": "722d6183-8b04-40e7-897c-572f9b171015",
      "identifier": [ {
        "value": "7434927"
      } ],
      "version": "2020-10-30T18:29:05.808Z",
      "status": "active",
      "experimental": false,
      "date": "2020-10-30T18:29:05+00:00",
      "publisher": "User ID: 'RB12' User name: 'Rachel Boyer' User skill set: 'T3'",
      "lastReviewDate": "2020-10-30",
      "subjectType": [ "Patient" ],
      "item": [ {
        "linkId": "7434927",
        "prefix": "3700",
        "text": "STRING:ShockAsked",
        "type": "choice",
        "required": true,
        "repeats": false,
        "option": [ {
          "valueString": "\"present\", Selected: true"
        } ]
      } ]
    }
  }, {
    "fullUrl": "urn:uuid:2fec63d6-b95e-4e5f-81a3-3f631762b94a",
    "resource": {
      "resourceType": "QuestionnaireResponse",
      "id": "2fec63d6-b95e-4e5f-81a3-3f631762b94a",
      "identifier": {
        "value": "7434927"
      },
      "questionnaire": {
        "reference": "urn:uuid:3a6da500-92fc-447e-abb8-8fb451adfa8a"
      },
      "status": "completed",
      "subject": {
        "reference": "urn:uuid:a2bc7d93-c9fd-4967-a86f-01e24e39c56e"
      },
      "context": {
        "reference": "urn:uuid:f5d46de8-0a51-4dc2-a661-adcbaa5df5b7"
      },
      "authored": "2020-10-30T18:29:05+00:00"
    }
  }, {
    "fullUrl": "urn:uuid:3a6da500-92fc-447e-abb8-8fb451adfa8a",
    "resource": {
      "resourceType": "Questionnaire",
      "id": "3a6da500-92fc-447e-abb8-8fb451adfa8a",
      "identifier": [ {
        "value": "7434927"
      } ],
      "version": "2020-10-30T18:29:05.808Z",
      "status": "active",
      "experimental": false,
      "date": "2020-10-30T18:29:05+00:00",
      "publisher": "User ID: 'RB12' User name: 'Rachel Boyer' User skill set: 'T3'",
      "lastReviewDate": "2020-10-30",
      "subjectType": [ "Patient" ]
    }
  }, {
    "fullUrl": "urn:uuid:abeed122-0e12-4233-beeb-57debbb9f421",
    "resource": {
      "resourceType": "QuestionnaireResponse",
      "id": "abeed122-0e12-4233-beeb-57debbb9f421",
      "identifier": {
        "value": "7434927"
      },
      "questionnaire": {
        "reference": "urn:uuid:bf3668df-d017-44a1-ae40-250c98167bf3"
      },
      "status": "completed",
      "subject": {
        "reference": "urn:uuid:a2bc7d93-c9fd-4967-a86f-01e24e39c56e"
      },
      "context": {
        "reference": "urn:uuid:f5d46de8-0a51-4dc2-a661-adcbaa5df5b7"
      },
      "authored": "2020-10-30T18:29:05+00:00",
      "item": [ {
        "linkId": "Tx42307",
        "text": "Are you feeling faint or dizzy?",
        "answer": [ {
          "valueString": "no"
        } ]
      } ]
    }
  }, {
    "fullUrl": "urn:uuid:bf3668df-d017-44a1-ae40-250c98167bf3",
    "resource": {
      "resourceType": "Questionnaire",
      "id": "bf3668df-d017-44a1-ae40-250c98167bf3",
      "identifier": [ {
        "value": "7434927"
      } ],
      "version": "2020-10-30T18:29:05.808Z",
      "status": "active",
      "experimental": false,
      "date": "2020-10-30T18:29:05+00:00",
      "publisher": "User ID: 'RB12' User name: 'Rachel Boyer' User skill set: 'T3'",
      "lastReviewDate": "2020-10-30",
      "subjectType": [ "Patient" ],
      "item": [ {
        "linkId": "7434927",
        "prefix": "0",
        "text": "Are you feeling faint or dizzy?",
        "type": "choice",
        "required": true,
        "repeats": false,
        "option": [ {
          "valueString": "yes, Selected: false"
        }, {
          "valueString": "not sure, Selected: false"
        }, {
          "valueString": "no, Selected: true"
        } ]
      } ]
    }
  }, {
    "fullUrl": "urn:uuid:27e9db87-cb71-40e9-b34c-40b59b386490",
    "resource": {
      "resourceType": "QuestionnaireResponse",
      "id": "27e9db87-cb71-40e9-b34c-40b59b386490",
      "identifier": {
        "value": "7434927"
      },
      "questionnaire": {
        "reference": "urn:uuid:5af5d1cd-29ad-48b1-ab71-f797130c28c2"
      },
      "status": "completed",
      "subject": {
        "reference": "urn:uuid:a2bc7d93-c9fd-4967-a86f-01e24e39c56e"
      },
      "context": {
        "reference": "urn:uuid:f5d46de8-0a51-4dc2-a661-adcbaa5df5b7"
      },
      "authored": "2020-10-30T18:29:05+00:00",
      "item": [ {
        "linkId": "Tx1260",
        "text": "Is the nose still bleeding?",
        "answer": [ {
          "valueString": "yes"
        } ]
      } ]
    }
  }, {
    "fullUrl": "urn:uuid:5af5d1cd-29ad-48b1-ab71-f797130c28c2",
    "resource": {
      "resourceType": "Questionnaire",
      "id": "5af5d1cd-29ad-48b1-ab71-f797130c28c2",
      "identifier": [ {
        "value": "7434927"
      } ],
      "version": "2020-10-30T18:29:05.808Z",
      "status": "active",
      "experimental": false,
      "date": "2020-10-30T18:29:05+00:00",
      "publisher": "User ID: 'RB12' User name: 'Rachel Boyer' User skill set: 'T3'",
      "lastReviewDate": "2020-10-30",
      "subjectType": [ "Patient" ],
      "item": [ {
        "linkId": "7434927",
        "prefix": "100",
        "text": "Is the nose still bleeding?",
        "type": "choice",
        "required": true,
        "repeats": false,
        "option": [ {
          "valueString": "yes, Selected: true"
        }, {
          "valueString": "not sure, Selected: false"
        }, {
          "valueString": "no, Selected: false"
        } ]
      } ]
    }
  }, {
    "fullUrl": "urn:uuid:8539cfee-72f4-4b9c-848a-b99c8c6554e5",
    "resource": {
      "resourceType": "QuestionnaireResponse",
      "id": "8539cfee-72f4-4b9c-848a-b99c8c6554e5",
      "identifier": {
        "value": "7434927"
      },
      "questionnaire": {
        "reference": "urn:uuid:8f3ca5e2-f880-4a59-9280-f5a41c6c99eb"
      },
      "status": "completed",
      "subject": {
        "reference": "urn:uuid:a2bc7d93-c9fd-4967-a86f-01e24e39c56e"
      },
      "context": {
        "reference": "urn:uuid:f5d46de8-0a51-4dc2-a661-adcbaa5df5b7"
      },
      "authored": "2020-10-30T18:29:05+00:00",
      "item": [ {
        "linkId": "Tx1258",
        "text": "Is anything stuck up the nose?",
        "answer": [ {
          "valueString": "no"
        } ]
      } ]
    }
  }, {
    "fullUrl": "urn:uuid:8f3ca5e2-f880-4a59-9280-f5a41c6c99eb",
    "resource": {
      "resourceType": "Questionnaire",
      "id": "8f3ca5e2-f880-4a59-9280-f5a41c6c99eb",
      "identifier": [ {
        "value": "7434927"
      } ],
      "version": "2020-10-30T18:29:05.808Z",
      "status": "active",
      "experimental": false,
      "date": "2020-10-30T18:29:05+00:00",
      "publisher": "User ID: 'RB12' User name: 'Rachel Boyer' User skill set: 'T3'",
      "lastReviewDate": "2020-10-30",
      "subjectType": [ "Patient" ],
      "item": [ {
        "linkId": "7434927",
        "prefix": "300",
        "text": "Is anything stuck up the nose?",
        "type": "choice",
        "required": true,
        "repeats": false,
        "option": [ {
          "valueString": "yes, Selected: false"
        }, {
          "valueString": "not sure, Selected: false"
        }, {
          "valueString": "no, Selected: true"
        } ]
      } ]
    }
  }, {
    "fullUrl": "urn:uuid:119edd55-59b4-4f48-bf7b-8a67057175d2",
    "resource": {
      "resourceType": "QuestionnaireResponse",
      "id": "119edd55-59b4-4f48-bf7b-8a67057175d2",
      "identifier": {
        "value": "7434927"
      },
      "questionnaire": {
        "reference": "urn:uuid:3dc31c49-0a57-4af4-b023-0106b8b1d957"
      },
      "status": "completed",
      "subject": {
        "reference": "urn:uuid:a2bc7d93-c9fd-4967-a86f-01e24e39c56e"
      },
      "context": {
        "reference": "urn:uuid:f5d46de8-0a51-4dc2-a661-adcbaa5df5b7"
      },
      "authored": "2020-10-30T18:29:05+00:00",
      "item": [ {
        "linkId": "Tx1259",
        "text": "Have you pinched the soft part of the nose for AT LEAST 10 MINUTES without a break?",
        "answer": [ {
          "valueString": "yes"
        } ]
      } ]
    }
  }, {
    "fullUrl": "urn:uuid:3dc31c49-0a57-4af4-b023-0106b8b1d957",
    "resource": {
      "resourceType": "Questionnaire",
      "id": "3dc31c49-0a57-4af4-b023-0106b8b1d957",
      "identifier": [ {
        "value": "7434927"
      } ],
      "version": "2020-10-30T18:29:05.808Z",
      "status": "active",
      "experimental": false,
      "date": "2020-10-30T18:29:05+00:00",
      "publisher": "User ID: 'RB12' User name: 'Rachel Boyer' User skill set: 'T3'",
      "lastReviewDate": "2020-10-30",
      "subjectType": [ "Patient" ],
      "item": [ {
        "linkId": "7434927",
        "prefix": "1500",
        "text": "Have you pinched the soft part of the nose for AT LEAST 10 MINUTES without a break?",
        "type": "choice",
        "required": true,
        "repeats": false,
        "option": [ {
          "valueString": "yes, Selected: true"
        }, {
          "valueString": "not sure, Selected: false"
        }, {
          "valueString": "no, Selected: false"
        } ]
      } ]
    }
  }, {
    "fullUrl": "urn:uuid:b0a9d496-2077-45b0-b805-3bd6d7b47157",
    "resource": {
      "resourceType": "QuestionnaireResponse",
      "id": "b0a9d496-2077-45b0-b805-3bd6d7b47157",
      "identifier": {
        "value": "7434927"
      },
      "questionnaire": {
        "reference": "urn:uuid:97f611ec-a7b4-41fe-8ff3-e1694264c6f2"
      },
      "status": "completed",
      "subject": {
        "reference": "urn:uuid:a2bc7d93-c9fd-4967-a86f-01e24e39c56e"
      },
      "context": {
        "reference": "urn:uuid:f5d46de8-0a51-4dc2-a661-adcbaa5df5b7"
      },
      "authored": "2020-10-30T18:29:05+00:00",
      "item": [ {
        "linkId": "Tx221512",
        "text": "STRING:SDEDFullEDassessmentandmanagementcapability",
        "answer": [ {
          "valueString": "\"ED full ED assessment and management capability\""
        } ]
      } ]
    }
  }, {
    "fullUrl": "urn:uuid:97f611ec-a7b4-41fe-8ff3-e1694264c6f2",
    "resource": {
      "resourceType": "Questionnaire",
      "id": "97f611ec-a7b4-41fe-8ff3-e1694264c6f2",
      "identifier": [ {
        "value": "7434927"
      } ],
      "version": "2020-10-30T18:29:05.808Z",
      "status": "active",
      "experimental": false,
      "date": "2020-10-30T18:29:05+00:00",
      "publisher": "User ID: 'RB12' User name: 'Rachel Boyer' User skill set: 'T3'",
      "lastReviewDate": "2020-10-30",
      "subjectType": [ "Patient" ],
      "item": [ {
        "linkId": "7434927",
        "prefix": "1700",
        "text": "STRING:SDEDFullEDassessmentandmanagementcapability",
        "type": "choice",
        "required": true,
        "repeats": false,
        "option": [ {
          "valueString": "\"ED full ED assessment and management capability\", Selected: true"
        } ]
      } ]
    }
  }, {
    "fullUrl": "urn:uuid:6c5035d2-6560-4909-94c2-041ea040ebe1",
    "resource": {
      "resourceType": "QuestionnaireResponse",
      "id": "6c5035d2-6560-4909-94c2-041ea040ebe1",
      "identifier": {
        "value": "7434927"
      },
      "questionnaire": {
        "reference": "urn:uuid:ca4ca32d-02f8-40d8-acca-4a7d048718f4"
      },
      "status": "completed",
      "subject": {
        "reference": "urn:uuid:a2bc7d93-c9fd-4967-a86f-01e24e39c56e"
      },
      "context": {
        "reference": "urn:uuid:f5d46de8-0a51-4dc2-a661-adcbaa5df5b7"
      },
      "authored": "2020-10-30T18:29:05+00:00"
    }
  }, {
    "fullUrl": "urn:uuid:ca4ca32d-02f8-40d8-acca-4a7d048718f4",
    "resource": {
      "resourceType": "Questionnaire",
      "id": "ca4ca32d-02f8-40d8-acca-4a7d048718f4",
      "identifier": [ {
        "value": "7434927"
      } ],
      "version": "2020-10-30T18:29:05.808Z",
      "status": "active",
      "experimental": false,
      "date": "2020-10-30T18:29:05+00:00",
      "publisher": "User ID: 'RB12' User name: 'Rachel Boyer' User skill set: 'T3'",
      "lastReviewDate": "2020-10-30",
      "subjectType": [ "Patient" ]
    }
  }, {
    "fullUrl": "urn:uuid:a4c23ae6-f61b-4523-9d6d-ef04df291008",
    "resource": {
      "resourceType": "QuestionnaireResponse",
      "id": "a4c23ae6-f61b-4523-9d6d-ef04df291008",
      "identifier": {
        "value": "7434927"
      },
      "questionnaire": {
        "reference": "urn:uuid:4d1ed19a-e0b4-4f60-a496-c670a234e6cf"
      },
      "status": "completed",
      "subject": {
        "reference": "urn:uuid:a2bc7d93-c9fd-4967-a86f-01e24e39c56e"
      },
      "context": {
        "reference": "urn:uuid:f5d46de8-0a51-4dc2-a661-adcbaa5df5b7"
      },
      "authored": "2020-10-30T18:29:05+00:00"
    }
  }, {
    "fullUrl": "urn:uuid:4d1ed19a-e0b4-4f60-a496-c670a234e6cf",
    "resource": {
      "resourceType": "Questionnaire",
      "id": "4d1ed19a-e0b4-4f60-a496-c670a234e6cf",
      "identifier": [ {
        "value": "7434927"
      } ],
      "version": "2020-10-30T18:29:05.808Z",
      "status": "active",
      "experimental": false,
      "date": "2020-10-30T18:29:05+00:00",
      "publisher": "User ID: 'RB12' User name: 'Rachel Boyer' User skill set: 'T3'",
      "lastReviewDate": "2020-10-30",
      "subjectType": [ "Patient" ]
    }
  }, {
    "fullUrl": "urn:uuid:e5ed624d-8aba-4b9b-818f-1ede47dac6a1",
    "resource": {
      "resourceType": "QuestionnaireResponse",
      "id": "e5ed624d-8aba-4b9b-818f-1ede47dac6a1",
      "identifier": {
        "value": "7434927"
      },
      "questionnaire": {
        "reference": "urn:uuid:ddd0770f-30df-4a7b-9838-4e669e055012"
      },
      "status": "completed",
      "subject": {
        "reference": "urn:uuid:a2bc7d93-c9fd-4967-a86f-01e24e39c56e"
      },
      "context": {
        "reference": "urn:uuid:f5d46de8-0a51-4dc2-a661-adcbaa5df5b7"
      },
      "authored": "2020-10-30T18:29:05+00:00"
    }
  }, {
    "fullUrl": "urn:uuid:ddd0770f-30df-4a7b-9838-4e669e055012",
    "resource": {
      "resourceType": "Questionnaire",
      "id": "ddd0770f-30df-4a7b-9838-4e669e055012",
      "identifier": [ {
        "value": "7434927"
      } ],
      "version": "2020-10-30T18:29:05.808Z",
      "status": "active",
      "experimental": false,
      "date": "2020-10-30T18:29:05+00:00",
      "publisher": "User ID: 'RB12' User name: 'Rachel Boyer' User skill set: 'T3'",
      "lastReviewDate": "2020-10-30",
      "subjectType": [ "Patient" ]
    }
  }, {
    "fullUrl": "urn:uuid:4f87b6ab-56c5-4659-97fc-c17af020dfae",
    "resource": {
      "resourceType": "Observation",
      "id": "4f87b6ab-56c5-4659-97fc-c17af020dfae",
      "status": "final",
      "code": {
        "coding": [ {
          "system": "http://snomed.info/sct",
          "code": "33962009",
          "display": "Presenting complaint"
        } ]
      },
      "subject": {
        "reference": "urn:uuid:a2bc7d93-c9fd-4967-a86f-01e24e39c56e"
      },
      "context": {
        "reference": "urn:uuid:f5d46de8-0a51-4dc2-a661-adcbaa5df5b7"
      }
    }
  }, {
    "fullUrl": "urn:uuid:5946e061-3afb-425a-a162-151c25a472d4",
    "resource": {
      "resourceType": "PractitionerRole",
      "id": "5946e061-3afb-425a-a162-151c25a472d4",
      "practitioner": {
        "reference": "urn:uuid:d5e856e3-09ad-4ce5-974d-195668cd104e"
      },
      "organization": {
        "reference": "urn:uuid:5d03d734-c546-4629-a033-48fa6cec38e6"
      },
      "code": [ {
        "coding": [ {
          "system": "2.16.840.1.113883.2.1.3.2.4.17.339",
          "code": "OTHER",
          "display": "Assessed by"
        } ]
      } ]
    }
  }, {
    "fullUrl": "urn:uuid:5d03d734-c546-4629-a033-48fa6cec38e6",
    "resource": {
      "resourceType": "Organization",
      "id": "5d03d734-c546-4629-a033-48fa6cec38e6",
      "identifier": [ {
        "value": "Y00397"
      } ],
      "name": "Devon 111 (Devon Doctors Group)"
    }
  }, {
    "fullUrl": "urn:uuid:e1c31226-38cf-4497-a4b2-392589cc698f",
    "resource": {
      "resourceType": "PractitionerRole",
      "id": "e1c31226-38cf-4497-a4b2-392589cc698f",
      "practitioner": {
        "reference": "urn:uuid:9fbee69d-d87a-4471-b8b7-d63d34e5016c"
      },
      "organization": {
        "reference": "urn:uuid:f2aeb839-3f6f-418f-ae4b-7d4648e13990"
      },
      "code": [ {
        "coding": [ {
          "system": "2.16.840.1.113883.2.1.3.2.4.17.196",
          "code": "R0010",
          "display": "Medical Director"
        } ]
      } ]
    }
  }, {
    "fullUrl": "urn:uuid:f2aeb839-3f6f-418f-ae4b-7d4648e13990",
    "resource": {
      "resourceType": "Organization",
      "id": "f2aeb839-3f6f-418f-ae4b-7d4648e13990",
      "identifier": [ {
        "value": "Y00397"
      } ],
      "name": "Devon Doctors Group"
    }
  }, {
    "fullUrl": "urn:uuid:e538b327-0ab4-48b8-8567-576cafb92c3b",
    "resource": {
      "resourceType": "RelatedPerson",
      "id": "e538b327-0ab4-48b8-8567-576cafb92c3b",
      "patient": {
        "reference": "urn:uuid:a2bc7d93-c9fd-4967-a86f-01e24e39c56e"
      },
      "relationship": {
        "coding": [ {
          "system": "http://hl7.org/fhir/v2/0131",
          "code": "C",
          "display": "Emergency Contact"
        } ]
      },
      "telecom": [ {
        "system": "phone",
        "value": "tel:01702123456"
      } ]
    }
  }, {
    "fullUrl": "urn:uuid:02dc6950-e42b-4a2d-976a-14d5c4f52cb9",
    "resource": {
      "resourceType": "Device",
      "id": "02dc6950-e42b-4a2d-976a-14d5c4f52cb9",
      "model": "111 Adaptor",
      "version": "0.11.0"
    }
  }, {
    "fullUrl": "urn:uuid:56fcb749-6a03-42b3-9b80-22bf0f051ddc",
    "resource": {
      "resourceType": "List",
      "id": "56fcb749-6a03-42b3-9b80-22bf0f051ddc",
      "status": "current",
      "mode": "working",
      "title": "111 Report List",
      "code": {
        "coding": [ {
          "system": "http://snomed.info/sct",
          "code": "225390008",
          "display": "Triage"
        } ]
      },
      "subject": {
        "reference": "urn:uuid:a2bc7d93-c9fd-4967-a86f-01e24e39c56e"
      },
      "encounter": {
        "reference": "urn:uuid:f5d46de8-0a51-4dc2-a661-adcbaa5df5b7"
      },
      "date": "2021-10-01T07:34:04+00:00",
      "source": {
        "reference": "urn:uuid:02dc6950-e42b-4a2d-976a-14d5c4f52cb9"
      },
      "orderedBy": {
        "coding": [ {
          "system": "http://hl7.org/fhir/list-order",
          "code": "event-date",
          "display": "Sorted by Event Date"
        } ]
      },
      "entry": [ {
        "item": {
          "reference": "urn:uuid:8d76cf98-c871-497c-b1b6-164060b3ed9e"
        }
      }, {
        "item": {
          "reference": "urn:uuid:cbcddba8-2d76-4586-b18c-85142d125f53"
        }
      }, {
        "item": {
          "reference": "urn:uuid:f2aeb839-3f6f-418f-ae4b-7d4648e13990"
        }
      }, {
        "item": {
          "reference": "urn:uuid:8b4271cc-5e93-4d31-8c1b-b71e89e05c7b"
        }
      }, {
        "item": {
          "reference": "urn:uuid:e538b327-0ab4-48b8-8567-576cafb92c3b"
        }
      }, {
        "item": {
          "reference": "urn:uuid:d5e856e3-09ad-4ce5-974d-195668cd104e"
        }
      }, {
        "item": {
          "reference": "urn:uuid:891e3211-713c-4f5d-9709-6a3ae06b884c"
        }
      }, {
        "item": {
          "reference": "urn:uuid:5d03d734-c546-4629-a033-48fa6cec38e6"
        }
      }, {
        "item": {
          "reference": "urn:uuid:9fbee69d-d87a-4471-b8b7-d63d34e5016c"
        }
      }, {
        "item": {
          "reference": "urn:uuid:f70b3344-9050-4b79-b73f-950bbd93910d"
        }
      }, {
        "item": {
          "reference": "urn:uuid:4f87b6ab-56c5-4659-97fc-c17af020dfae"
        }
      }, {
        "item": {
          "reference": "urn:uuid:d36e63a2-806a-4a2b-90f5-46e0c0c5c496"
        }
      }, {
        "item": {
          "reference": "urn:uuid:0921e96d-4a10-4942-83bf-afe3ce695c19"
        }
      }, {
        "item": {
          "reference": "urn:uuid:08730460-c9b2-4764-8ef0-1f927e788ae3"
        }
      }, {
        "item": {
          "reference": "urn:uuid:987b4f7d-b9b0-43b3-bc5d-20f713b055c2"
        }
      }, {
        "item": {
          "reference": "urn:uuid:c308794a-c25c-4ec8-aeac-16ee5e526bfc"
        }
      }, {
        "item": {
          "reference": "urn:uuid:541b8c10-7b10-42a7-943f-766225872880"
        }
      }, {
        "item": {
          "reference": "urn:uuid:b0a9d496-2077-45b0-b805-3bd6d7b47157"
        }
      }, {
        "item": {
          "reference": "urn:uuid:bfa7d7d5-5186-43b6-8589-bce5f125d63f"
        }
      }, {
        "item": {
          "reference": "urn:uuid:8539cfee-72f4-4b9c-848a-b99c8c6554e5"
        }
      }, {
        "item": {
          "reference": "urn:uuid:ca4ca32d-02f8-40d8-acca-4a7d048718f4"
        }
      }, {
        "item": {
          "reference": "urn:uuid:e5ed624d-8aba-4b9b-818f-1ede47dac6a1"
        }
      }, {
        "item": {
          "reference": "urn:uuid:7dd2d57e-25e3-4277-9d29-27ccaacccfa1"
        }
      }, {
        "item": {
          "reference": "urn:uuid:d5d27d70-e2ee-4b16-87dd-41ab02b7761d"
        }
      }, {
        "item": {
          "reference": "urn:uuid:97f611ec-a7b4-41fe-8ff3-e1694264c6f2"
        }
      }, {
        "item": {
          "reference": "urn:uuid:094d1193-6189-4ff2-825b-4481d792a426"
        }
      }, {
        "item": {
          "reference": "urn:uuid:2fec63d6-b95e-4e5f-81a3-3f631762b94a"
        }
      }, {
        "item": {
          "reference": "urn:uuid:c6ee993e-d6fd-4aee-9bea-60b7cae1570a"
        }
      }, {
        "item": {
          "reference": "urn:uuid:6c5035d2-6560-4909-94c2-041ea040ebe1"
        }
      }, {
        "item": {
          "reference": "urn:uuid:8f3ca5e2-f880-4a59-9280-f5a41c6c99eb"
        }
      }, {
        "item": {
          "reference": "urn:uuid:f0e15d3b-522b-444c-a9fd-b86a9ed7fe3a"
        }
      }, {
        "item": {
          "reference": "urn:uuid:3dc31c49-0a57-4af4-b023-0106b8b1d957"
        }
      }, {
        "item": {
          "reference": "urn:uuid:4e00ffba-d436-428e-848a-cc0dc128473a"
        }
      }, {
        "item": {
          "reference": "urn:uuid:a42156c4-59b5-40df-b17f-a81b8a7fddd8"
        }
      }, {
        "item": {
          "reference": "urn:uuid:722d6183-8b04-40e7-897c-572f9b171015"
        }
      }, {
        "item": {
          "reference": "urn:uuid:3a6da500-92fc-447e-abb8-8fb451adfa8a"
        }
      }, {
        "item": {
          "reference": "urn:uuid:2e384060-404a-4aa6-b5fb-2695188d5b23"
        }
      }, {
        "item": {
          "reference": "urn:uuid:f072a5e7-a038-4b26-93c0-fda6ba1d9f16"
        }
      }, {
        "item": {
          "reference": "urn:uuid:78a632fa-4283-4236-85b6-dbdf904b8898"
        }
      }, {
        "item": {
          "reference": "urn:uuid:f8f2e9d9-9705-4a11-a82f-563b156a1a05"
        }
      }, {
        "item": {
          "reference": "urn:uuid:ddd0770f-30df-4a7b-9838-4e669e055012"
        }
      }, {
        "item": {
          "reference": "urn:uuid:a9147beb-613f-4c45-96c5-245718f95780"
        }
      }, {
        "item": {
          "reference": "urn:uuid:abeed122-0e12-4233-beeb-57debbb9f421"
        }
      }, {
        "item": {
          "reference": "urn:uuid:24bdfef3-4c16-4572-8eeb-8c4eeaf3f201"
        }
      }, {
        "item": {
          "reference": "urn:uuid:4d1ed19a-e0b4-4f60-a496-c670a234e6cf"
        }
      }, {
        "item": {
          "reference": "urn:uuid:64702e6e-bab6-4fac-bc99-a4dc6cbb2fdc"
        }
      }, {
        "item": {
          "reference": "urn:uuid:a4c23ae6-f61b-4523-9d6d-ef04df291008"
        }
      }, {
        "item": {
          "reference": "urn:uuid:22d100d4-bd33-448b-a554-c4b95d719377"
        }
      }, {
        "item": {
          "reference": "urn:uuid:068d849b-951f-46c8-baa5-da001b7f3243"
        }
      }, {
        "item": {
          "reference": "urn:uuid:5af5d1cd-29ad-48b1-ab71-f797130c28c2"
        }
      }, {
        "item": {
          "reference": "urn:uuid:158759fa-d609-44b4-8013-27c7512700c3"
        }
      }, {
        "item": {
          "reference": "urn:uuid:7c3667d6-d2fe-4250-b363-a6e8bffb2f48"
        }
      }, {
        "item": {
          "reference": "urn:uuid:119edd55-59b4-4f48-bf7b-8a67057175d2"
        }
      }, {
        "item": {
          "reference": "urn:uuid:2accdde9-6f51-41bb-acb4-4c5d30f69d8d"
        }
      }, {
        "item": {
          "reference": "urn:uuid:bf3668df-d017-44a1-ae40-250c98167bf3"
        }
      }, {
        "item": {
          "reference": "urn:uuid:fc9be1a8-5104-4162-bc80-f3c9806302c2"
        }
      }, {
        "item": {
          "reference": "urn:uuid:27e9db87-cb71-40e9-b34c-40b59b386490"
        }
      }, {
        "item": {
          "reference": "urn:uuid:898e8102-f2b8-417b-a6ed-7cb078ae993a"
        }
      } ]
    }
  } ]
}