{
  "resourceType": "Bundle",
  "identifier": {
    "type": {
      "text": "ClinicalDocument VersionNumber"
    },
    "value": "1"
  },
  "type": "message",
  "entry": [ {
    "fullUrl": "urn:uuid:A12F527F-3808-44BC-9272-8C8A92884A37",
    "resource": {
      "resourceType": "MessageHeader",
      "id": "A12F527F-3808-44BC-9272-8C8A92884A37",
      "event": {
        "system": "https://fhir.nhs.uk/STU3/CodeSystem/EventType-1",
        "code": "referral-1",
        "display": "Referral"
      },
      "destination": [ {
        "endpoint": "urn:nhs-uk:addressing:ods:20000729:DOSServiceID:2000072936"
      } ],
      "timestamp": "2020-10-30T18:29:05.000+00:00",
      "source": {
        "name": "NHS 111 Adaptor",
        "endpoint": "http://localhost:8080/report"
      },
      "reason": {
        "coding": [ {
          "system": "urn:nhs-itk:ns:201005:interaction",
          "code": "urn:nhs-itk:interaction:primaryNHS111RepeatCallerDocumentSet-v1-0"
        } ]
      }
    }
  }, {
    "fullUrl": "urn:uuid:c74d3feb-6a41-4aa9-a9ef-8164f398da56",
    "resource": {
      "resourceType": "Encounter",
      "id": "c74d3feb-6a41-4aa9-a9ef-8164f398da56",
      "identifier": [ {
        "system": "2.16.840.1.113883.2.1.3.2.4.18.34",
        "value": "CF1F65AB-2392-4582-9E14-F0384358CB6A"
      }, {
        "system": "2.16.840.1.113883.2.1.3.2.4.18.35",
        "value": "7434927"
      } ],
      "status": "finished",
      "type": [ {
        "text": "111 Encounter Referral"
      } ],
      "subject": {
        "reference": "urn:uuid:00aa9966-7781-4a62-8d3e-6c17c8cf3584"
      },
      "participant": [ {
        "type": [ {
          "coding": [ {
            "system": "http://hl7.org/fhir/ValueSet/encounter-participant-type",
            "code": "PPRF",
            "display": "Author"
          } ]
        } ],
        "individual": {
          "reference": "urn:uuid:c996010a-3ce9-4d16-8aa9-bf15a83ceb5e"
        }
      }, {
        "type": [ {
          "coding": [ {
            "system": "http://hl7.org/fhir/ValueSet/encounter-participant-type",
            "code": "ATND",
            "display": "Responsible Party"
          } ]
        } ],
        "individual": {
          "reference": "urn:uuid:a1334edf-494a-4fcf-b00b-8c3ea227404a"
        }
      } ],
      "period": {
        "start": "2020-10-30T18:29:05+00:00"
      },
      "location": [ {
        "location": {
          "reference": "urn:uuid:e10e95b4-1977-4ae2-9c25-3000c0645f5c"
        },
        "status": "active"
      }, {
        "location": {
          "reference": "urn:uuid:02c659b9-f19b-41f6-8520-e54f366f199d"
        },
        "status": "completed"
      } ],
      "serviceProvider": {
        "reference": "urn:uuid:6936b40f-896d-4b97-a83e-31e0b6e645e5"
      }
    }
  }, {
    "fullUrl": "urn:uuid:6936b40f-896d-4b97-a83e-31e0b6e645e5",
    "resource": {
      "resourceType": "Organization",
      "id": "6936b40f-896d-4b97-a83e-31e0b6e645e5",
      "active": true,
      "type": [ {
        "text": "CST"
      } ],
      "name": "Devon Doctors Group"
    }
  }, {
    "fullUrl": "urn:uuid:c996010a-3ce9-4d16-8aa9-bf15a83ceb5e",
    "resource": {
      "resourceType": "Practitioner",
      "id": "c996010a-3ce9-4d16-8aa9-bf15a83ceb5e",
      "active": true,
      "name": [ {
        "use": "official",
        "family": "Service Advisor",
        "given": [ "Dental" ]
      } ]
    }
  }, {
    "fullUrl": "urn:uuid:a1334edf-494a-4fcf-b00b-8c3ea227404a",
    "resource": {
      "resourceType": "Practitioner",
      "id": "a1334edf-494a-4fcf-b00b-8c3ea227404a",
      "active": true,
      "name": [ {
        "use": "official",
        "family": "Eggleton",
        "given": [ "Dr. Mark" ]
      } ]
    }
  }, {
    "fullUrl": "urn:uuid:e10e95b4-1977-4ae2-9c25-3000c0645f5c",
    "resource": {
      "resourceType": "Location",
      "id": "e10e95b4-1977-4ae2-9c25-3000c0645f5c",
      "managingOrganization": {
        "reference": "urn:uuid:69961614-79c9-497a-88d7-de63a85aa7f2"
      }
    }
  }, {
    "fullUrl": "urn:uuid:69961614-79c9-497a-88d7-de63a85aa7f2",
    "resource": {
      "resourceType": "Organization",
      "id": "69961614-79c9-497a-88d7-de63a85aa7f2",
      "identifier": [ {
        "value": "J85990"
      } ],
      "type": [ {
        "text": "GP Practice"
      } ],
      "name": "Test Somerset"
    }
  }, {
    "fullUrl": "urn:uuid:02c659b9-f19b-41f6-8520-e54f366f199d",
    "resource": {
      "resourceType": "Location",
      "id": "02c659b9-f19b-41f6-8520-e54f366f199d",
      "name": "Incident Location",
      "address": {
        "type": "physical",
        "line": [ "NHS England", "Quarry House Quarry Hill", "Leeds", "West Yorkshire" ],
        "postalCode": "LS2 7UE"
      }
    }
  }, {
    "fullUrl": "urn:uuid:00aa9966-7781-4a62-8d3e-6c17c8cf3584",
    "resource": {
      "resourceType": "Patient",
      "id": "00aa9966-7781-4a62-8d3e-6c17c8cf3584",
      "identifier": [ {
        "extension": [ {
          "url": "https://fhir.hl7.org.uk/STU3/StructureDefinition/Extension-CareConnect-NHSNumberVerificationStatus-1",
          "valueCodeableConcept": {
            "coding": [ {
              "system": "https://fhir.hl7.org.uk/STU3/StructureDefinition/Extension-CareConnect-NHSNumberVerificationStatus-1",
              "code": "02"
            } ]
          }
        } ],
        "system": "https://fhir.nhs.uk/Id/nhs-number",
        "value": "9990238359"
      } ],
      "active": true,
      "name": [ {
        "use": "official",
        "family": "Xxtestpatientdzadn",
        "given": [ "Scrdonotuse" ]
      } ],
      "telecom": [ {
        "system": "phone",
        "value": "tel:01702123456",
        "use": "home"
      }, {
        "system": "phone",
        "value": "tel:01702123456"
      } ],
      "gender": "female",
      "birthDate": "1965-02-17",
      "address": [ {
        "use": "home",
        "line": [ "NHS England", "Quarry House Quarry Hill", "Leeds", "West Yorkshire" ],
        "postalCode": "LS2 7UE"
      } ],
      "generalPractitioner": [ {
        "reference": "urn:uuid:00913394-0a1d-4167-bf2a-f5486321bc83"
      } ]
    }
  }, {
    "fullUrl": "urn:uuid:00913394-0a1d-4167-bf2a-f5486321bc83",
    "resource": {
      "resourceType": "Organization",
      "id": "00913394-0a1d-4167-bf2a-f5486321bc83",
      "identifier": [ {
        "value": "J85990"
      } ],
      "type": [ {
        "text": "GP Practice"
      } ],
      "name": "Test Somerset"
    }
  }, {
    "fullUrl": "urn:uuid:d36a8beb-ddc8-4091-8a91-6a61202674f7",
    "resource": {
      "resourceType": "HealthcareService",
      "id": "d36a8beb-ddc8-4091-8a91-6a61202674f7",
      "active": true,
      "providedBy": {
        "reference": "urn:uuid:32704c0d-18b0-4aae-816a-7ed5d7a37b4c"
      },
      "location": [ {
        "reference": "urn:uuid:084f25b7-ca8a-4448-b020-0c249648e90c"
      } ],
      "name": "**TESTING ONLY** DO NOT SEND PATIENTS - ED Test Service for EDDI"
    }
  }, {
    "fullUrl": "urn:uuid:084f25b7-ca8a-4448-b020-0c249648e90c",
    "resource": {
      "resourceType": "Location",
      "id": "084f25b7-ca8a-4448-b020-0c249648e90c",
      "managingOrganization": {
        "reference": "urn:uuid:32704c0d-18b0-4aae-816a-7ed5d7a37b4c"
      }
    }
  }, {
    "fullUrl": "urn:uuid:32704c0d-18b0-4aae-816a-7ed5d7a37b4c",
    "resource": {
      "resourceType": "Organization",
      "id": "32704c0d-18b0-4aae-816a-7ed5d7a37b4c",
      "identifier": [ {
        "value": "20000729"
      } ],
      "type": [ {
        "coding": [ {
          "code": "PRCP",
          "display": "**TESTING ONLY** DO NOT SEND PATIENTS - ED Test Service for EDDI"
        } ]
      } ],
      "name": "**TESTING ONLY** DO NOT SEND PATIENTS - ED Test Service for EDDI"
    }
  }, {
    "fullUrl": "urn:uuid:140ba96b-52e8-4ae2-9a46-2c08c9d36a88",
    "resource": {
      "resourceType": "ReferralRequest",
      "id": "140ba96b-52e8-4ae2-9a46-2c08c9d36a88",
      "status": "active",
      "intent": "plan",
      "priority": "routine",
      "subject": {
        "reference": "urn:uuid:00aa9966-7781-4a62-8d3e-6c17c8cf3584"
      },
      "context": {
        "reference": "urn:uuid:c74d3feb-6a41-4aa9-a9ef-8164f398da56"
      },
      "occurrencePeriod": {
        "start": "2021-10-11T06:41:51+00:00",
        "end": "2021-10-11T07:41:51+00:00"
      },
      "authoredOn": "2020-10-30T18:28:58+00:00",
      "requester": {
        "agent": {
          "reference": "urn:uuid:4b8d702e-762e-4be1-8c8b-cd3bcf9f59b1"
        },
        "onBehalfOf": {
          "reference": "urn:uuid:6936b40f-896d-4b97-a83e-31e0b6e645e5"
        }
      },
      "recipient": [ {
        "reference": "urn:uuid:d36a8beb-ddc8-4091-8a91-6a61202674f7"
      } ],
      "reasonReference": [ {
        "reference": "urn:uuid:348fd2a7-6700-4690-a525-ac9185721349"
      } ],
      "supportingInfo": [ {
        "reference": "urn:uuid:95d53f64-de95-4e9d-a22b-ccec8d493f8d"
      } ]
    }
  }, {
    "fullUrl": "urn:uuid:95d53f64-de95-4e9d-a22b-ccec8d493f8d",
    "resource": {
      "resourceType": "ProcedureRequest",
      "id": "95d53f64-de95-4e9d-a22b-ccec8d493f8d",
      "status": "active",
      "intent": "plan",
      "priority": "routine",
      "doNotPerform": false,
      "code": {
        "coding": [ {
          "system": "2.16.840.1.113883.2.1.3.2.4.17.325",
          "code": "Dx02",
          "display": "Attend a Treatment Centre within 1 hour"
        } ]
      },
      "subject": {
        "reference": "urn:uuid:00aa9966-7781-4a62-8d3e-6c17c8cf3584"
      },
      "occurrencePeriod": {
        "start": "2021-10-11T06:41:51+00:00",
        "end": "2021-10-11T07:41:51+00:00"
      },
      "reasonReference": [ {
        "reference": "urn:uuid:348fd2a7-6700-4690-a525-ac9185721349"
      } ]
    }
  }, {
    "fullUrl": "urn:uuid:2d92efeb-f67a-4bb5-907d-e5a685f5992c",
    "resource": {
      "resourceType": "Composition",
      "id": "2d92efeb-f67a-4bb5-907d-e5a685f5992c",
      "identifier": {
        "use": "usual",
        "value": "B53175B4-0A4A-4503-A6CD-94333AA01645"
      },
      "status": "final",
      "type": {
        "coding": [ {
          "system": "http://snomed.info/sct",
          "code": "371531000",
          "display": "Report of clinical encounter (record artifact)"
        } ]
      },
      "subject": {
        "reference": "urn:uuid:00aa9966-7781-4a62-8d3e-6c17c8cf3584"
      },
      "encounter": {
        "reference": "urn:uuid:c74d3feb-6a41-4aa9-a9ef-8164f398da56"
      },
      "date": "2021-10-11T06:41:51+00:00",
      "author": [ {
        "reference": "urn:uuid:c996010a-3ce9-4d16-8aa9-bf15a83ceb5e"
      } ],
      "title": "111 Report",
      "confidentiality": "N",
      "section": [ {
        "section": [ {
          "title": "Patient's Reported Condition",
          "text": {
            "status": "generated",
            "div": "<div xmlns=\"http://www.w3.org/1999/xhtml\">TEST&lt;br/&gt;</div>"
          }
        }, {
          "title": "Pathways Disposition",
          "text": {
            "status": "generated",
            "div": "<div xmlns=\"http://www.w3.org/1999/xhtml\">Attend a Treatment Centre within 1 hour (Dx02)\n                                                    &lt;br/&gt;&lt;br/&gt;\n                                                    Selected service: **TESTING ONLY** DO NOT SEND PATIENTS - ED Test Se&lt;br/&gt;</div>"
          }
        }, {
          "title": "Consultation Summary",
          "text": {
            "status": "generated",
            "div": "<div xmlns=\"http://www.w3.org/1999/xhtml\">Illness&lt;br/&gt;Warm to touch&lt;br/&gt;Nose bleeding freely&lt;br/&gt;Nose bleeding despite first aid measures&lt;br/&gt;</div>"
          }
        }, {
          "title": "Pathways Assessment",
          "text": {
            "status": "generated",
            "div": "<div xmlns=\"http://www.w3.org/1999/xhtml\">An injury or health problem was the reason for the contact.&lt;br/&gt;Heavy bleeding had not occurred in the previous 2 hours.&lt;br/&gt;An illness or health problem was the main problem.&lt;br/&gt;User Comments: TEST&lt;br/&gt;The individual was not fighting for breath.&lt;br/&gt;The main reason for the assessment was not an allergic reaction, heart attack, chest/upper back pain, probable stroke, recent fit/seizure or suicide attempt.&lt;br/&gt;The main reason for contact was not new confusion, declared diabetic hypo/hyperglycaemia, or ICD shock.&lt;br/&gt;The skin on the torso felt normal, warm or hot.&lt;br/&gt;Pathway selected - Nosebleeds without Injury&lt;br/&gt;The individual was not feeling faint or dizzy.&lt;br/&gt;The nose was continuing to bleed.&lt;br/&gt;There was no nasal foreign body.&lt;br/&gt;Constant pressure had been applied to the soft part of the nose for at least 10 minutes.&lt;br/&gt;Instructions given were: The individual needs to attend a treatment centre within 1 hour.&lt;br/&gt;Directory of Services referral: **TESTING ONLY** DO NOT SEND PATIENTS - ED Test Service for EDDI&lt;br/&gt;Advice given:\n                                                    Worsening\n                                                    &lt;br/&gt;</div>"
          }
        }, {
          "title": "Advice Given",
          "text": {
            "status": "generated",
            "div": "<div xmlns=\"http://www.w3.org/1999/xhtml\">If there are any new symptoms, or if the condition gets worse, changes or you have any other concerns, call us back.&lt;br/&gt;&lt;br/&gt;</div>"
          }
        }, {
          "title": "Special Patient Notes",
          "text": {
            "status": "generated",
            "div": "<div xmlns=\"http://www.w3.org/1999/xhtml\">Special Notes from an external system were flagged as being present for this patient.</div>"
          }
        } ]
      }, {
        "title": "ReferralRequest",
        "entry": [ {
          "reference": "urn:uuid:140ba96b-52e8-4ae2-9a46-2c08c9d36a88"
        } ]
      }, {
        "title": "QuestionnaireResponse",
        "entry": [ {
          "reference": "urn:uuid:9d1d7788-0d5a-4821-986d-e1f9cebc443a"
        } ]
      }, {
        "title": "QuestionnaireResponse",
        "entry": [ {
          "reference": "urn:uuid:2f7fe65a-a00f-49c8-bf71-a23a035d32b2"
        } ]
      }, {
        "title": "QuestionnaireResponse",
        "entry": [ {
          "reference": "urn:uuid:6bf62c0d-8606-4a1c-8fad-2068d610834a"
        } ]
      }, {
        "title": "QuestionnaireResponse",
        "entry": [ {
          "reference": "urn:uuid:373ef3d3-db6c-45e9-9ad8-6dd4506066c2"
        } ]
      }, {
        "title": "QuestionnaireResponse",
        "entry": [ {
          "reference": "urn:uuid:bc2600a9-e4ed-475e-9d5e-ca69520e6ea1"
        } ]
      }, {
        "title": "QuestionnaireResponse",
        "entry": [ {
          "reference": "urn:uuid:dcb7faad-6f46-4615-8f0c-64b8186d9bae"
        } ]
      }, {
        "title": "QuestionnaireResponse",
        "entry": [ {
          "reference": "urn:uuid:5a10ab8f-c8da-4ff1-b1fd-bd65831acf7f"
        } ]
      }, {
        "title": "QuestionnaireResponse",
        "entry": [ {
          "reference": "urn:uuid:e1c7ff10-097a-4311-9ea3-cc9a4958cd5e"
        } ]
      }, {
        "title": "QuestionnaireResponse",
        "entry": [ {
          "reference": "urn:uuid:3a62921e-aed1-4764-b9ce-54eddbef164d"
        } ]
      }, {
        "title": "QuestionnaireResponse",
        "entry": [ {
          "reference": "urn:uuid:001100cd-b4ae-46b3-ac73-420ba48f8c6d"
        } ]
      }, {
        "title": "QuestionnaireResponse",
        "entry": [ {
          "reference": "urn:uuid:306b144d-c65f-412d-b5ca-e922b66c43ac"
        } ]
      }, {
        "title": "QuestionnaireResponse",
        "entry": [ {
          "reference": "urn:uuid:77c02c57-001b-49c5-bb2d-2a20482acf6d"
        } ]
      }, {
        "title": "QuestionnaireResponse",
        "entry": [ {
          "reference": "urn:uuid:6cc99d3b-e85d-4f23-8bc1-a28c164f2ca1"
        } ]
      }, {
        "title": "QuestionnaireResponse",
        "entry": [ {
          "reference": "urn:uuid:48074774-36dd-4ec1-8b89-9b6c2961ab86"
        } ]
      }, {
        "title": "QuestionnaireResponse",
        "entry": [ {
          "reference": "urn:uuid:7ed2bc78-e481-4694-930a-46644eec21ec"
        } ]
      }, {
        "title": "QuestionnaireResponse",
        "entry": [ {
          "reference": "urn:uuid:3ebfa2d3-e664-46d8-88d8-bc75be8c607d"
        } ]
      }, {
        "title": "QuestionnaireResponse",
        "entry": [ {
          "reference": "urn:uuid:cce15938-3a2d-414f-ad54-6cecdc1ed1c0"
        } ]
      }, {
        "title": "QuestionnaireResponse",
        "entry": [ {
          "reference": "urn:uuid:5b323ae3-9591-48d7-a5ee-1c148de2cbe5"
        } ]
      }, {
        "title": "QuestionnaireResponse",
        "entry": [ {
          "reference": "urn:uuid:bb6e59a8-d5ee-4582-9b60-afeb9df3106b"
        } ]
      }, {
        "title": "QuestionnaireResponse",
        "entry": [ {
          "reference": "urn:uuid:b438be5f-c1e3-4215-98ea-fa2721853fba"
        } ]
      }, {
        "title": "QuestionnaireResponse",
        "entry": [ {
          "reference": "urn:uuid:700524f5-4504-4455-930c-ef9e5eadd21e"
        } ]
      }, {
        "title": "QuestionnaireResponse",
        "entry": [ {
          "reference": "urn:uuid:155eb492-e087-4e17-82e5-c968b9f45fe8"
        } ]
      }, {
        "title": "QuestionnaireResponse",
        "entry": [ {
          "reference": "urn:uuid:f2c1154a-1038-476c-97fc-40f95fd86ef4"
        } ]
      } ]
    }
  }, {
    "fullUrl": "urn:uuid:01becb24-d2cb-4025-b4e0-4244af6d28d6",
    "resource": {
      "resourceType": "Consent",
      "id": "01becb24-d2cb-4025-b4e0-4244af6d28d6",
      "identifier": {
        "use": "usual",
        "value": "B53175B4-0A4A-4503-A6CD-94333AA01645"
      },
      "status": "active",
      "patient": {
        "reference": "urn:uuid:00aa9966-7781-4a62-8d3e-6c17c8cf3584"
      },
      "period": {
        "start": "2020-10-30T18:29:05+00:00"
      },
      "consentingParty": [ {
        "reference": "urn:uuid:00aa9966-7781-4a62-8d3e-6c17c8cf3584"
      } ],
      "action": [ {
        "coding": [ {
          "system": "http://snomed.info/sct",
          "code": "425691002",
          "display": "Consent given for electronic record sharing"
        } ],
        "text": "Consent given for electronic record sharing"
      } ],
      "organization": [ {
        "reference": "urn:uuid:6936b40f-896d-4b97-a83e-31e0b6e645e5"
      } ],
      "policyRule": "http://hl7.org/fhir/ConsentPolicy/opt-out",
      "data": [ {
        "meaning": "related",
        "reference": {
          "reference": "urn:uuid:c74d3feb-6a41-4aa9-a9ef-8164f398da56"
        }
      } ]
    }
  }, {
    "fullUrl": "urn:uuid:348fd2a7-6700-4690-a525-ac9185721349",
    "resource": {
      "resourceType": "Condition",
      "id": "348fd2a7-6700-4690-a525-ac9185721349",
      "clinicalStatus": "active",
      "verificationStatus": "unknown",
      "subject": {
        "reference": "urn:uuid:00aa9966-7781-4a62-8d3e-6c17c8cf3584"
      },
      "context": {
        "reference": "urn:uuid:c74d3feb-6a41-4aa9-a9ef-8164f398da56"
      },
      "evidence": [ {
        "detail": [ {
          "reference": "urn:uuid:9d1d7788-0d5a-4821-986d-e1f9cebc443a"
        } ]
      }, {
        "detail": [ {
          "reference": "urn:uuid:2f7fe65a-a00f-49c8-bf71-a23a035d32b2"
        } ]
      }, {
        "detail": [ {
          "reference": "urn:uuid:6bf62c0d-8606-4a1c-8fad-2068d610834a"
        } ]
      }, {
        "detail": [ {
          "reference": "urn:uuid:373ef3d3-db6c-45e9-9ad8-6dd4506066c2"
        } ]
      }, {
        "detail": [ {
          "reference": "urn:uuid:bc2600a9-e4ed-475e-9d5e-ca69520e6ea1"
        } ]
      }, {
        "detail": [ {
          "reference": "urn:uuid:dcb7faad-6f46-4615-8f0c-64b8186d9bae"
        } ]
      }, {
        "detail": [ {
          "reference": "urn:uuid:5a10ab8f-c8da-4ff1-b1fd-bd65831acf7f"
        } ]
      }, {
        "detail": [ {
          "reference": "urn:uuid:e1c7ff10-097a-4311-9ea3-cc9a4958cd5e"
        } ]
      }, {
        "detail": [ {
          "reference": "urn:uuid:3a62921e-aed1-4764-b9ce-54eddbef164d"
        } ]
      }, {
        "detail": [ {
          "reference": "urn:uuid:001100cd-b4ae-46b3-ac73-420ba48f8c6d"
        } ]
      }, {
        "detail": [ {
          "reference": "urn:uuid:306b144d-c65f-412d-b5ca-e922b66c43ac"
        } ]
      }, {
        "detail": [ {
          "reference": "urn:uuid:77c02c57-001b-49c5-bb2d-2a20482acf6d"
        } ]
      }, {
        "detail": [ {
          "reference": "urn:uuid:6cc99d3b-e85d-4f23-8bc1-a28c164f2ca1"
        } ]
      }, {
        "detail": [ {
          "reference": "urn:uuid:48074774-36dd-4ec1-8b89-9b6c2961ab86"
        } ]
      }, {
        "detail": [ {
          "reference": "urn:uuid:7ed2bc78-e481-4694-930a-46644eec21ec"
        } ]
      }, {
        "detail": [ {
          "reference": "urn:uuid:3ebfa2d3-e664-46d8-88d8-bc75be8c607d"
        } ]
      }, {
        "detail": [ {
          "reference": "urn:uuid:cce15938-3a2d-414f-ad54-6cecdc1ed1c0"
        } ]
      }, {
        "detail": [ {
          "reference": "urn:uuid:5b323ae3-9591-48d7-a5ee-1c148de2cbe5"
        } ]
      }, {
        "detail": [ {
          "reference": "urn:uuid:bb6e59a8-d5ee-4582-9b60-afeb9df3106b"
        } ]
      }, {
        "detail": [ {
          "reference": "urn:uuid:b438be5f-c1e3-4215-98ea-fa2721853fba"
        } ]
      }, {
        "detail": [ {
          "reference": "urn:uuid:700524f5-4504-4455-930c-ef9e5eadd21e"
        } ]
      }, {
        "detail": [ {
          "reference": "urn:uuid:155eb492-e087-4e17-82e5-c968b9f45fe8"
        } ]
      }, {
        "detail": [ {
          "reference": "urn:uuid:f2c1154a-1038-476c-97fc-40f95fd86ef4"
        } ]
      } ]
    }
  }, {
    "fullUrl": "urn:uuid:9d1d7788-0d5a-4821-986d-e1f9cebc443a",
    "resource": {
      "resourceType": "QuestionnaireResponse",
      "id": "9d1d7788-0d5a-4821-986d-e1f9cebc443a",
      "identifier": {
        "value": "7434927"
      },
      "questionnaire": {
        "reference": "urn:uuid:f2713e27-551c-4ff8-9ca9-cf4a7474e269"
      },
      "status": "completed",
      "subject": {
        "reference": "urn:uuid:00aa9966-7781-4a62-8d3e-6c17c8cf3584"
      },
      "context": {
        "reference": "urn:uuid:c74d3feb-6a41-4aa9-a9ef-8164f398da56"
      },
      "authored": "2020-10-30T18:29:05+00:00",
      "item": [ {
        "linkId": "Tx220074",
        "text": "What is the reason for the contact?",
        "answer": [ {
          "valueString": "an injury or other health problem"
        } ]
      } ]
    }
  }, {
    "fullUrl": "urn:uuid:f2713e27-551c-4ff8-9ca9-cf4a7474e269",
    "resource": {
      "resourceType": "Questionnaire",
      "id": "f2713e27-551c-4ff8-9ca9-cf4a7474e269",
      "identifier": [ {
        "value": "7434927"
      } ],
      "version": "2020-10-30T18:29:05.808Z",
      "status": "active",
      "experimental": false,
      "date": "2020-10-30T18:29:05+00:00",
      "publisher": "User ID: 'RB12' User name: 'Rachel Boyer' User skill set: 'T3'",
      "lastReviewDate": "2020-10-30",
      "subjectType": [ "Patient" ],
      "item": [ {
        "linkId": "7434927",
        "prefix": "5",
        "text": "What is the reason for the contact?",
        "type": "choice",
        "required": true,
        "repeats": false,
        "option": [ {
          "valueString": "an injury or other health problem, Selected: true"
        }, {
          "valueString": "labour or childbirth, Selected: false"
        }, {
          "valueString": "a need to access another healthcare service, Selected: false"
        }, {
          "valueString": "a healthcare professional requesting contact with another clinician, Selected: false"
        }, {
          "valueString": "a report of results or tests, Selected: false"
        }, {
          "valueString": "a possible failure of contraception, Selected: false"
        }, {
          "valueString": "more, Selected: false"
        } ]
      } ]
    }
  }, {
    "fullUrl": "urn:uuid:2f7fe65a-a00f-49c8-bf71-a23a035d32b2",
    "resource": {
      "resourceType": "QuestionnaireResponse",
      "id": "2f7fe65a-a00f-49c8-bf71-a23a035d32b2",
      "identifier": {
        "value": "7434927"
      },
      "questionnaire": {
        "reference": "urn:uuid:e95b749c-5362-40c0-90a7-3e9836eed735"
      },
      "status": "completed",
      "subject": {
        "reference": "urn:uuid:00aa9966-7781-4a62-8d3e-6c17c8cf3584"
      },
      "context": {
        "reference": "urn:uuid:c74d3feb-6a41-4aa9-a9ef-8164f398da56"
      },
      "authored": "2020-10-30T18:29:05+00:00",
      "item": [ {
        "linkId": "Tx221807",
        "text": "STRING:to'Immediatethreatstolife(SPA/OOHversion)'-'Majorbloodloss'stem",
        "answer": [ {
          "valueString": "\"present\""
        } ]
      } ]
    }
  }, {
    "fullUrl": "urn:uuid:e95b749c-5362-40c0-90a7-3e9836eed735",
    "resource": {
      "resourceType": "Questionnaire",
      "id": "e95b749c-5362-40c0-90a7-3e9836eed735",
      "identifier": [ {
        "value": "7434927"
      } ],
      "version": "2020-10-30T18:29:05.808Z",
      "status": "active",
      "experimental": false,
      "date": "2020-10-30T18:29:05+00:00",
      "publisher": "User ID: 'RB12' User name: 'Rachel Boyer' User skill set: 'T3'",
      "lastReviewDate": "2020-10-30",
      "subjectType": [ "Patient" ],
      "item": [ {
        "linkId": "7434927",
        "prefix": "200",
        "text": "STRING:to'Immediatethreatstolife(SPA/OOHversion)'-'Majorbloodloss'stem",
        "type": "choice",
        "required": true,
        "repeats": false,
        "option": [ {
          "valueString": "\"present\", Selected: true"
        } ]
      } ]
    }
  }, {
    "fullUrl": "urn:uuid:6bf62c0d-8606-4a1c-8fad-2068d610834a",
    "resource": {
      "resourceType": "QuestionnaireResponse",
      "id": "6bf62c0d-8606-4a1c-8fad-2068d610834a",
      "identifier": {
        "value": "7434927"
      },
      "questionnaire": {
        "reference": "urn:uuid:43e36d01-1c97-4dc6-9267-529ea1105b6a"
      },
      "status": "completed",
      "subject": {
        "reference": "urn:uuid:00aa9966-7781-4a62-8d3e-6c17c8cf3584"
      },
      "context": {
        "reference": "urn:uuid:c74d3feb-6a41-4aa9-a9ef-8164f398da56"
      },
      "authored": "2020-10-30T18:29:05+00:00"
    }
  }, {
    "fullUrl": "urn:uuid:43e36d01-1c97-4dc6-9267-529ea1105b6a",
    "resource": {
      "resourceType": "Questionnaire",
      "id": "43e36d01-1c97-4dc6-9267-529ea1105b6a",
      "identifier": [ {
        "value": "7434927"
      } ],
      "version": "2020-10-30T18:29:05.808Z",
      "status": "active",
      "experimental": false,
      "date": "2020-10-30T18:29:05+00:00",
      "publisher": "User ID: 'RB12' User name: 'Rachel Boyer' User skill set: 'T3'",
      "lastReviewDate": "2020-10-30",
      "subjectType": [ "Patient" ]
    }
  }, {
    "fullUrl": "urn:uuid:373ef3d3-db6c-45e9-9ad8-6dd4506066c2",
    "resource": {
      "resourceType": "QuestionnaireResponse",
      "id": "373ef3d3-db6c-45e9-9ad8-6dd4506066c2",
      "identifier": {
        "value": "7434927"
      },
      "questionnaire": {
        "reference": "urn:uuid:8b40b703-515f-4430-b98f-a32fd3ef6e6c"
      },
      "status": "completed",
      "subject": {
        "reference": "urn:uuid:00aa9966-7781-4a62-8d3e-6c17c8cf3584"
      },
      "context": {
        "reference": "urn:uuid:c74d3feb-6a41-4aa9-a9ef-8164f398da56"
      },
      "authored": "2020-10-30T18:29:05+00:00",
      "item": [ {
        "linkId": "Tx221799",
        "text": "STRING:injury,illnessorlabourestablishedinEntryFlow",
        "answer": [ {
          "valueString": "\"present\""
        } ]
      } ]
    }
  }, {
    "fullUrl": "urn:uuid:8b40b703-515f-4430-b98f-a32fd3ef6e6c",
    "resource": {
      "resourceType": "Questionnaire",
      "id": "8b40b703-515f-4430-b98f-a32fd3ef6e6c",
      "identifier": [ {
        "value": "7434927"
      } ],
      "version": "2020-10-30T18:29:05.808Z",
      "status": "active",
      "experimental": false,
      "date": "2020-10-30T18:29:05+00:00",
      "publisher": "User ID: 'RB12' User name: 'Rachel Boyer' User skill set: 'T3'",
      "lastReviewDate": "2020-10-30",
      "subjectType": [ "Patient" ],
      "item": [ {
        "linkId": "7434927",
        "prefix": "0",
        "text": "STRING:injury,illnessorlabourestablishedinEntryFlow",
        "type": "choice",
        "required": true,
        "repeats": false,
        "option": [ {
          "valueString": "\"present\", Selected: true"
        } ]
      } ]
    }
  }, {
    "fullUrl": "urn:uuid:bc2600a9-e4ed-475e-9d5e-ca69520e6ea1",
    "resource": {
      "resourceType": "QuestionnaireResponse",
      "id": "bc2600a9-e4ed-475e-9d5e-ca69520e6ea1",
      "identifier": {
        "value": "7434927"
      },
      "questionnaire": {
        "reference": "urn:uuid:1f7d4014-4c74-48cf-93bd-3f4038208c6d"
      },
      "status": "completed",
      "subject": {
        "reference": "urn:uuid:00aa9966-7781-4a62-8d3e-6c17c8cf3584"
      },
      "context": {
        "reference": "urn:uuid:c74d3feb-6a41-4aa9-a9ef-8164f398da56"
      },
      "authored": "2020-10-30T18:29:05+00:00",
      "item": [ {
        "linkId": "Tx224120",
        "text": "Have you been bleeding RED BLOOD very heavily IN THE LAST 2 HOURS?",
        "answer": [ {
          "valueString": "no"
        } ]
      } ]
    }
  }, {
    "fullUrl": "urn:uuid:1f7d4014-4c74-48cf-93bd-3f4038208c6d",
    "resource": {
      "resourceType": "Questionnaire",
      "id": "1f7d4014-4c74-48cf-93bd-3f4038208c6d",
      "identifier": [ {
        "value": "7434927"
      } ],
      "version": "2020-10-30T18:29:05.808Z",
      "status": "active",
      "experimental": false,
      "date": "2020-10-30T18:29:05+00:00",
      "publisher": "User ID: 'RB12' User name: 'Rachel Boyer' User skill set: 'T3'",
      "lastReviewDate": "2020-10-30",
      "subjectType": [ "Patient" ],
      "item": [ {
        "linkId": "7434927",
        "prefix": "10100",
        "text": "Have you been bleeding RED BLOOD very heavily IN THE LAST 2 HOURS?",
        "type": "choice",
        "required": true,
        "repeats": false,
        "option": [ {
          "valueString": "yes, Selected: false"
        }, {
          "valueString": "not sure, Selected: false"
        }, {
          "valueString": "no, Selected: true"
        } ]
      } ]
    }
  }, {
    "fullUrl": "urn:uuid:dcb7faad-6f46-4615-8f0c-64b8186d9bae",
    "resource": {
      "resourceType": "QuestionnaireResponse",
      "id": "dcb7faad-6f46-4615-8f0c-64b8186d9bae",
      "identifier": {
        "value": "7434927"
      },
      "questionnaire": {
        "reference": "urn:uuid:56939f6b-47e1-48d2-ad84-1d8f7a407c0b"
      },
      "status": "completed",
      "subject": {
        "reference": "urn:uuid:00aa9966-7781-4a62-8d3e-6c17c8cf3584"
      },
      "context": {
        "reference": "urn:uuid:c74d3feb-6a41-4aa9-a9ef-8164f398da56"
      },
      "authored": "2020-10-30T18:29:05+00:00",
      "item": [ {
        "linkId": "Tx221343",
        "text": "SocialConcernsExcluded",
        "answer": [ {
          "valueString": "==\"present\""
        } ]
      } ]
    }
  }, {
    "fullUrl": "urn:uuid:56939f6b-47e1-48d2-ad84-1d8f7a407c0b",
    "resource": {
      "resourceType": "Questionnaire",
      "id": "56939f6b-47e1-48d2-ad84-1d8f7a407c0b",
      "identifier": [ {
        "value": "7434927"
      } ],
      "version": "2020-10-30T18:29:05.808Z",
      "status": "active",
      "experimental": false,
      "date": "2020-10-30T18:29:05+00:00",
      "publisher": "User ID: 'RB12' User name: 'Rachel Boyer' User skill set: 'T3'",
      "lastReviewDate": "2020-10-30",
      "subjectType": [ "Patient" ],
      "item": [ {
        "linkId": "7434927",
        "prefix": "1100",
        "text": "SocialConcernsExcluded",
        "type": "choice",
        "required": true,
        "repeats": false,
        "option": [ {
          "valueString": "==\"present\", Selected: true"
        }, {
          "valueString": "*, Selected: false"
        } ]
      } ]
    }
  }, {
    "fullUrl": "urn:uuid:5a10ab8f-c8da-4ff1-b1fd-bd65831acf7f",
    "resource": {
      "resourceType": "QuestionnaireResponse",
      "id": "5a10ab8f-c8da-4ff1-b1fd-bd65831acf7f",
      "identifier": {
        "value": "7434927"
      },
      "questionnaire": {
        "reference": "urn:uuid:6ce80674-8beb-4ef9-89e1-664baac40d18"
      },
      "status": "completed",
      "subject": {
        "reference": "urn:uuid:00aa9966-7781-4a62-8d3e-6c17c8cf3584"
      },
      "context": {
        "reference": "urn:uuid:c74d3feb-6a41-4aa9-a9ef-8164f398da56"
      },
      "authored": "2020-10-30T18:29:05+00:00",
      "item": [ {
        "linkId": "Tx130011",
        "text": "What is the main problem?",
        "answer": [ {
          "valueString": "illness or other health problem (specify)"
        } ]
      } ]
    }
  }, {
    "fullUrl": "urn:uuid:6ce80674-8beb-4ef9-89e1-664baac40d18",
    "resource": {
      "resourceType": "Questionnaire",
      "id": "6ce80674-8beb-4ef9-89e1-664baac40d18",
      "identifier": [ {
        "value": "7434927"
      } ],
      "version": "2020-10-30T18:29:05.808Z",
      "status": "active",
      "experimental": false,
      "date": "2020-10-30T18:29:05+00:00",
      "publisher": "User ID: 'RB12' User name: 'Rachel Boyer' User skill set: 'T3'",
      "lastReviewDate": "2020-10-30",
      "subjectType": [ "Patient" ],
      "item": [ {
        "linkId": "7434927",
        "prefix": "2300",
        "text": "What is the main problem?",
        "type": "choice",
        "required": true,
        "repeats": false,
        "option": [ {
          "valueString": "the individual has been told to follow a particular course of action (specify), Selected: false"
        }, {
          "valueString": "the individual is an identified frequent caller, Selected: false"
        }, {
          "valueString": "injury (specify), Selected: false"
        }, {
          "valueString": "illness or other health problem (specify), Selected: true"
        }, {
          "valueString": "child protection/vulnerable adult concern, Selected: false"
        }, {
          "valueString": "social or domestic emergency, Selected: false"
        }, {
          "valueString": "the environment potentially poses an immediate threat to life (specify), Selected: false"
        } ]
      } ]
    }
  }, {
    "fullUrl": "urn:uuid:e1c7ff10-097a-4311-9ea3-cc9a4958cd5e",
    "resource": {
      "resourceType": "QuestionnaireResponse",
      "id": "e1c7ff10-097a-4311-9ea3-cc9a4958cd5e",
      "identifier": {
        "value": "7434927"
      },
      "questionnaire": {
        "reference": "urn:uuid:599b2d38-c687-4878-8cca-48b4c25b4316"
      },
      "status": "completed",
      "subject": {
        "reference": "urn:uuid:00aa9966-7781-4a62-8d3e-6c17c8cf3584"
      },
      "context": {
        "reference": "urn:uuid:c74d3feb-6a41-4aa9-a9ef-8164f398da56"
      },
      "authored": "2020-10-30T18:29:05+00:00"
    }
  }, {
    "fullUrl": "urn:uuid:599b2d38-c687-4878-8cca-48b4c25b4316",
    "resource": {
      "resourceType": "Questionnaire",
      "id": "599b2d38-c687-4878-8cca-48b4c25b4316",
      "identifier": [ {
        "value": "7434927"
      } ],
      "version": "2020-10-30T18:29:05.808Z",
      "status": "active",
      "experimental": false,
      "date": "2020-10-30T18:29:05+00:00",
      "publisher": "User ID: 'RB12' User name: 'Rachel Boyer' User skill set: 'T3'",
      "lastReviewDate": "2020-10-30",
      "subjectType": [ "Patient" ]
    }
  }, {
    "fullUrl": "urn:uuid:3a62921e-aed1-4764-b9ce-54eddbef164d",
    "resource": {
      "resourceType": "QuestionnaireResponse",
      "id": "3a62921e-aed1-4764-b9ce-54eddbef164d",
      "identifier": {
        "value": "7434927"
      },
      "questionnaire": {
        "reference": "urn:uuid:e102aba5-4336-4c81-92dd-82c46ad89081"
      },
      "status": "completed",
      "subject": {
        "reference": "urn:uuid:00aa9966-7781-4a62-8d3e-6c17c8cf3584"
      },
      "context": {
        "reference": "urn:uuid:c74d3feb-6a41-4aa9-a9ef-8164f398da56"
      },
      "authored": "2020-10-30T18:29:05+00:00",
      "item": [ {
        "linkId": "Tx61025",
        "text": "Are you so breathless that speaking more than a few words is impossible?",
        "answer": [ {
          "valueString": "no"
        } ]
      } ]
    }
  }, {
    "fullUrl": "urn:uuid:e102aba5-4336-4c81-92dd-82c46ad89081",
    "resource": {
      "resourceType": "Questionnaire",
      "id": "e102aba5-4336-4c81-92dd-82c46ad89081",
      "identifier": [ {
        "value": "7434927"
      } ],
      "version": "2020-10-30T18:29:05.808Z",
      "status": "active",
      "experimental": false,
      "date": "2020-10-30T18:29:05+00:00",
      "publisher": "User ID: 'RB12' User name: 'Rachel Boyer' User skill set: 'T3'",
      "lastReviewDate": "2020-10-30",
      "subjectType": [ "Patient" ],
      "item": [ {
        "linkId": "7434927",
        "prefix": "0",
        "text": "Are you so breathless that speaking more than a few words is impossible?",
        "type": "choice",
        "required": true,
        "repeats": false,
        "option": [ {
          "valueString": "yes, Selected: false"
        }, {
          "valueString": "not sure, Selected: false"
        }, {
          "valueString": "no, Selected: true"
        } ]
      } ]
    }
  }, {
    "fullUrl": "urn:uuid:001100cd-b4ae-46b3-ac73-420ba48f8c6d",
    "resource": {
      "resourceType": "QuestionnaireResponse",
      "id": "001100cd-b4ae-46b3-ac73-420ba48f8c6d",
      "identifier": {
        "value": "7434927"
      },
      "questionnaire": {
        "reference": "urn:uuid:4f6e1d94-6dce-46f8-817b-f472fe82fae6"
      },
      "status": "completed",
      "subject": {
        "reference": "urn:uuid:00aa9966-7781-4a62-8d3e-6c17c8cf3584"
      },
      "context": {
        "reference": "urn:uuid:c74d3feb-6a41-4aa9-a9ef-8164f398da56"
      },
      "authored": "2020-10-30T18:29:05+00:00",
      "item": [ {
        "linkId": "Tx220845",
        "text": "SYSTEM_FLUPANDEMIC",
        "answer": [ {
          "valueString": "==\"pandemic\""
        } ]
      } ]
    }
  }, {
    "fullUrl": "urn:uuid:4f6e1d94-6dce-46f8-817b-f472fe82fae6",
    "resource": {
      "resourceType": "Questionnaire",
      "id": "4f6e1d94-6dce-46f8-817b-f472fe82fae6",
      "identifier": [ {
        "value": "7434927"
      } ],
      "version": "2020-10-30T18:29:05.808Z",
      "status": "active",
      "experimental": false,
      "date": "2020-10-30T18:29:05+00:00",
      "publisher": "User ID: 'RB12' User name: 'Rachel Boyer' User skill set: 'T3'",
      "lastReviewDate": "2020-10-30",
      "subjectType": [ "Patient" ],
      "item": [ {
        "linkId": "7434927",
        "prefix": "100",
        "text": "SYSTEM_FLUPANDEMIC",
        "type": "choice",
        "required": true,
        "repeats": false,
        "option": [ {
          "valueString": "==\"pandemic\", Selected: true"
        }, {
          "valueString": "*, Selected: false"
        } ]
      } ]
    }
  }, {
    "fullUrl": "urn:uuid:306b144d-c65f-412d-b5ca-e922b66c43ac",
    "resource": {
      "resourceType": "QuestionnaireResponse",
      "id": "306b144d-c65f-412d-b5ca-e922b66c43ac",
      "identifier": {
        "value": "7434927"
      },
      "questionnaire": {
        "reference": "urn:uuid:398bd253-cc4e-4cf9-b3e0-fd1501835e0b"
      },
      "status": "completed",
      "subject": {
        "reference": "urn:uuid:00aa9966-7781-4a62-8d3e-6c17c8cf3584"
      },
      "context": {
        "reference": "urn:uuid:c74d3feb-6a41-4aa9-a9ef-8164f398da56"
      },
      "authored": "2020-10-30T18:29:05+00:00",
      "item": [ {
        "linkId": "Tx223440",
        "text": "WHAT IS SAID TO BE THE MAIN REASON FOR THIS CONTACT?",
        "answer": [ {
          "valueString": "more"
        } ]
      } ]
    }
  }, {
    "fullUrl": "urn:uuid:398bd253-cc4e-4cf9-b3e0-fd1501835e0b",
    "resource": {
      "resourceType": "Questionnaire",
      "id": "398bd253-cc4e-4cf9-b3e0-fd1501835e0b",
      "identifier": [ {
        "value": "7434927"
      } ],
      "version": "2020-10-30T18:29:05.808Z",
      "status": "active",
      "experimental": false,
      "date": "2020-10-30T18:29:05+00:00",
      "publisher": "User ID: 'RB12' User name: 'Rachel Boyer' User skill set: 'T3'",
      "lastReviewDate": "2020-10-30",
      "subjectType": [ "Patient" ],
      "item": [ {
        "linkId": "7434927",
        "prefix": "5200",
        "text": "WHAT IS SAID TO BE THE MAIN REASON FOR THIS CONTACT?",
        "type": "choice",
        "required": true,
        "repeats": false,
        "option": [ {
          "valueString": "a probable allergic reaction now, Selected: false"
        }, {
          "valueString": "a probable heart attack, Selected: false"
        }, {
          "valueString": "chest or upper back pain, Selected: false"
        }, {
          "valueString": "a probable stroke or mini-stroke, Selected: false"
        }, {
          "valueString": "a probable fit or seizure within the last 12 hours, Selected: false"
        }, {
          "valueString": "a suicide attempt, Selected: false"
        }, {
          "valueString": "more, Selected: true"
        } ]
      } ]
    }
  }, {
    "fullUrl": "urn:uuid:77c02c57-001b-49c5-bb2d-2a20482acf6d",
    "resource": {
      "resourceType": "QuestionnaireResponse",
      "id": "77c02c57-001b-49c5-bb2d-2a20482acf6d",
      "identifier": {
        "value": "7434927"
      },
      "questionnaire": {
        "reference": "urn:uuid:1485dea8-1ed0-4ac6-97b1-b05d4e20115c"
      },
      "status": "completed",
      "subject": {
        "reference": "urn:uuid:00aa9966-7781-4a62-8d3e-6c17c8cf3584"
      },
      "context": {
        "reference": "urn:uuid:c74d3feb-6a41-4aa9-a9ef-8164f398da56"
      },
      "authored": "2020-10-30T18:29:05+00:00",
      "item": [ {
        "linkId": "Tx220032",
        "text": "WHAT IS SAID TO BE THE MAIN REASON FOR THIS CONTACT?",
        "answer": [ {
          "valueString": "none of the above"
        } ]
      } ]
    }
  }, {
    "fullUrl": "urn:uuid:1485dea8-1ed0-4ac6-97b1-b05d4e20115c",
    "resource": {
      "resourceType": "Questionnaire",
      "id": "1485dea8-1ed0-4ac6-97b1-b05d4e20115c",
      "identifier": [ {
        "value": "7434927"
      } ],
      "version": "2020-10-30T18:29:05.808Z",
      "status": "active",
      "experimental": false,
      "date": "2020-10-30T18:29:05+00:00",
      "publisher": "User ID: 'RB12' User name: 'Rachel Boyer' User skill set: 'T3'",
      "lastReviewDate": "2020-10-30",
      "subjectType": [ "Patient" ],
      "item": [ {
        "linkId": "7434927",
        "prefix": "2200",
        "text": "WHAT IS SAID TO BE THE MAIN REASON FOR THIS CONTACT?",
        "type": "choice",
        "required": true,
        "repeats": false,
        "option": [ {
          "valueString": "new confusion now, Selected: false"
        }, {
          "valueString": "a diabetic hypo (low blood sugar) or a diabetic hyper (high blood sugar), Selected: false"
        }, {
          "valueString": "recovery from an ICD (implanted cardioverter defibrillator) shock, Selected: false"
        }, {
          "valueString": "none of the above, Selected: true"
        } ]
      } ]
    }
  }, {
    "fullUrl": "urn:uuid:6cc99d3b-e85d-4f23-8bc1-a28c164f2ca1",
    "resource": {
      "resourceType": "QuestionnaireResponse",
      "id": "6cc99d3b-e85d-4f23-8bc1-a28c164f2ca1",
      "identifier": {
        "value": "7434927"
      },
      "questionnaire": {
        "reference": "urn:uuid:42796cbe-e5ba-4c03-a899-852d44f8e747"
      },
      "status": "completed",
      "subject": {
        "reference": "urn:uuid:00aa9966-7781-4a62-8d3e-6c17c8cf3584"
      },
      "context": {
        "reference": "urn:uuid:c74d3feb-6a41-4aa9-a9ef-8164f398da56"
      },
      "authored": "2020-10-30T18:29:05+00:00",
      "item": [ {
        "linkId": "Tx223142",
        "text": "Does the skin on the chest, back or abdomen feel a normal temperature?",
        "answer": [ {
          "valueString": "yes - normal, warm or hot"
        } ]
      } ]
    }
  }, {
    "fullUrl": "urn:uuid:42796cbe-e5ba-4c03-a899-852d44f8e747",
    "resource": {
      "resourceType": "Questionnaire",
      "id": "42796cbe-e5ba-4c03-a899-852d44f8e747",
      "identifier": [ {
        "value": "7434927"
      } ],
      "version": "2020-10-30T18:29:05.808Z",
      "status": "active",
      "experimental": false,
      "date": "2020-10-30T18:29:05+00:00",
      "publisher": "User ID: 'RB12' User name: 'Rachel Boyer' User skill set: 'T3'",
      "lastReviewDate": "2020-10-30",
      "subjectType": [ "Patient" ],
      "item": [ {
        "linkId": "7434927",
        "prefix": "4200",
        "text": "Does the skin on the chest, back or abdomen feel a normal temperature?",
        "type": "choice",
        "required": true,
        "repeats": false,
        "option": [ {
          "valueString": "yes - normal, warm or hot, Selected: true"
        }, {
          "valueString": "not sure, Selected: false"
        }, {
          "valueString": "no - cool OR cold, Selected: false"
        }, {
          "valueString": "not safe to touch, Selected: false"
        } ]
      } ]
    }
  }, {
    "fullUrl": "urn:uuid:48074774-36dd-4ec1-8b89-9b6c2961ab86",
    "resource": {
      "resourceType": "QuestionnaireResponse",
      "id": "48074774-36dd-4ec1-8b89-9b6c2961ab86",
      "identifier": {
        "value": "7434927"
      },
      "questionnaire": {
        "reference": "urn:uuid:c45a01ef-3f19-4cfb-b957-56d57cfa5bac"
      },
      "status": "completed",
      "subject": {
        "reference": "urn:uuid:00aa9966-7781-4a62-8d3e-6c17c8cf3584"
      },
      "context": {
        "reference": "urn:uuid:c74d3feb-6a41-4aa9-a9ef-8164f398da56"
      },
      "authored": "2020-10-30T18:29:05+00:00",
      "item": [ {
        "linkId": "Tx221724",
        "text": "STRING:ShockAsked",
        "answer": [ {
          "valueString": "\"present\""
        } ]
      } ]
    }
  }, {
    "fullUrl": "urn:uuid:c45a01ef-3f19-4cfb-b957-56d57cfa5bac",
    "resource": {
      "resourceType": "Questionnaire",
      "id": "c45a01ef-3f19-4cfb-b957-56d57cfa5bac",
      "identifier": [ {
        "value": "7434927"
      } ],
      "version": "2020-10-30T18:29:05.808Z",
      "status": "active",
      "experimental": false,
      "date": "2020-10-30T18:29:05+00:00",
      "publisher": "User ID: 'RB12' User name: 'Rachel Boyer' User skill set: 'T3'",
      "lastReviewDate": "2020-10-30",
      "subjectType": [ "Patient" ],
      "item": [ {
        "linkId": "7434927",
        "prefix": "3700",
        "text": "STRING:ShockAsked",
        "type": "choice",
        "required": true,
        "repeats": false,
        "option": [ {
          "valueString": "\"present\", Selected: true"
        } ]
      } ]
    }
  }, {
    "fullUrl": "urn:uuid:7ed2bc78-e481-4694-930a-46644eec21ec",
    "resource": {
      "resourceType": "QuestionnaireResponse",
      "id": "7ed2bc78-e481-4694-930a-46644eec21ec",
      "identifier": {
        "value": "7434927"
      },
      "questionnaire": {
        "reference": "urn:uuid:ce630dd7-3f2b-43a9-949a-a794d765c0d6"
      },
      "status": "completed",
      "subject": {
        "reference": "urn:uuid:00aa9966-7781-4a62-8d3e-6c17c8cf3584"
      },
      "context": {
        "reference": "urn:uuid:c74d3feb-6a41-4aa9-a9ef-8164f398da56"
      },
      "authored": "2020-10-30T18:29:05+00:00"
    }
  }, {
    "fullUrl": "urn:uuid:ce630dd7-3f2b-43a9-949a-a794d765c0d6",
    "resource": {
      "resourceType": "Questionnaire",
      "id": "ce630dd7-3f2b-43a9-949a-a794d765c0d6",
      "identifier": [ {
        "value": "7434927"
      } ],
      "version": "2020-10-30T18:29:05.808Z",
      "status": "active",
      "experimental": false,
      "date": "2020-10-30T18:29:05+00:00",
      "publisher": "User ID: 'RB12' User name: 'Rachel Boyer' User skill set: 'T3'",
      "lastReviewDate": "2020-10-30",
      "subjectType": [ "Patient" ]
    }
  }, {
    "fullUrl": "urn:uuid:3ebfa2d3-e664-46d8-88d8-bc75be8c607d",
    "resource": {
      "resourceType": "QuestionnaireResponse",
      "id": "3ebfa2d3-e664-46d8-88d8-bc75be8c607d",
      "identifier": {
        "value": "7434927"
      },
      "questionnaire": {
        "reference": "urn:uuid:ba7932c7-c2e1-44e5-bcc3-206476a3d044"
      },
      "status": "completed",
      "subject": {
        "reference": "urn:uuid:00aa9966-7781-4a62-8d3e-6c17c8cf3584"
      },
      "context": {
        "reference": "urn:uuid:c74d3feb-6a41-4aa9-a9ef-8164f398da56"
      },
      "authored": "2020-10-30T18:29:05+00:00",
      "item": [ {
        "linkId": "Tx42307",
        "text": "Are you feeling faint or dizzy?",
        "answer": [ {
          "valueString": "no"
        } ]
      } ]
    }
  }, {
    "fullUrl": "urn:uuid:ba7932c7-c2e1-44e5-bcc3-206476a3d044",
    "resource": {
      "resourceType": "Questionnaire",
      "id": "ba7932c7-c2e1-44e5-bcc3-206476a3d044",
      "identifier": [ {
        "value": "7434927"
      } ],
      "version": "2020-10-30T18:29:05.808Z",
      "status": "active",
      "experimental": false,
      "date": "2020-10-30T18:29:05+00:00",
      "publisher": "User ID: 'RB12' User name: 'Rachel Boyer' User skill set: 'T3'",
      "lastReviewDate": "2020-10-30",
      "subjectType": [ "Patient" ],
      "item": [ {
        "linkId": "7434927",
        "prefix": "0",
        "text": "Are you feeling faint or dizzy?",
        "type": "choice",
        "required": true,
        "repeats": false,
        "option": [ {
          "valueString": "yes, Selected: false"
        }, {
          "valueString": "not sure, Selected: false"
        }, {
          "valueString": "no, Selected: true"
        } ]
      } ]
    }
  }, {
    "fullUrl": "urn:uuid:cce15938-3a2d-414f-ad54-6cecdc1ed1c0",
    "resource": {
      "resourceType": "QuestionnaireResponse",
      "id": "cce15938-3a2d-414f-ad54-6cecdc1ed1c0",
      "identifier": {
        "value": "7434927"
      },
      "questionnaire": {
        "reference": "urn:uuid:9c1ef7d8-f09f-48d1-90ce-080d1ed350b1"
      },
      "status": "completed",
      "subject": {
        "reference": "urn:uuid:00aa9966-7781-4a62-8d3e-6c17c8cf3584"
      },
      "context": {
        "reference": "urn:uuid:c74d3feb-6a41-4aa9-a9ef-8164f398da56"
      },
      "authored": "2020-10-30T18:29:05+00:00",
      "item": [ {
        "linkId": "Tx1260",
        "text": "Is the nose still bleeding?",
        "answer": [ {
          "valueString": "yes"
        } ]
      } ]
    }
  }, {
    "fullUrl": "urn:uuid:9c1ef7d8-f09f-48d1-90ce-080d1ed350b1",
    "resource": {
      "resourceType": "Questionnaire",
      "id": "9c1ef7d8-f09f-48d1-90ce-080d1ed350b1",
      "identifier": [ {
        "value": "7434927"
      } ],
      "version": "2020-10-30T18:29:05.808Z",
      "status": "active",
      "experimental": false,
      "date": "2020-10-30T18:29:05+00:00",
      "publisher": "User ID: 'RB12' User name: 'Rachel Boyer' User skill set: 'T3'",
      "lastReviewDate": "2020-10-30",
      "subjectType": [ "Patient" ],
      "item": [ {
        "linkId": "7434927",
        "prefix": "100",
        "text": "Is the nose still bleeding?",
        "type": "choice",
        "required": true,
        "repeats": false,
        "option": [ {
          "valueString": "yes, Selected: true"
        }, {
          "valueString": "not sure, Selected: false"
        }, {
          "valueString": "no, Selected: false"
        } ]
      } ]
    }
  }, {
    "fullUrl": "urn:uuid:5b323ae3-9591-48d7-a5ee-1c148de2cbe5",
    "resource": {
      "resourceType": "QuestionnaireResponse",
      "id": "5b323ae3-9591-48d7-a5ee-1c148de2cbe5",
      "identifier": {
        "value": "7434927"
      },
      "questionnaire": {
        "reference": "urn:uuid:68f95c9e-d0f1-496f-abd8-b993a9f7fdbf"
      },
      "status": "completed",
      "subject": {
        "reference": "urn:uuid:00aa9966-7781-4a62-8d3e-6c17c8cf3584"
      },
      "context": {
        "reference": "urn:uuid:c74d3feb-6a41-4aa9-a9ef-8164f398da56"
      },
      "authored": "2020-10-30T18:29:05+00:00",
      "item": [ {
        "linkId": "Tx1258",
        "text": "Is anything stuck up the nose?",
        "answer": [ {
          "valueString": "no"
        } ]
      } ]
    }
  }, {
    "fullUrl": "urn:uuid:68f95c9e-d0f1-496f-abd8-b993a9f7fdbf",
    "resource": {
      "resourceType": "Questionnaire",
      "id": "68f95c9e-d0f1-496f-abd8-b993a9f7fdbf",
      "identifier": [ {
        "value": "7434927"
      } ],
      "version": "2020-10-30T18:29:05.808Z",
      "status": "active",
      "experimental": false,
      "date": "2020-10-30T18:29:05+00:00",
      "publisher": "User ID: 'RB12' User name: 'Rachel Boyer' User skill set: 'T3'",
      "lastReviewDate": "2020-10-30",
      "subjectType": [ "Patient" ],
      "item": [ {
        "linkId": "7434927",
        "prefix": "300",
        "text": "Is anything stuck up the nose?",
        "type": "choice",
        "required": true,
        "repeats": false,
        "option": [ {
          "valueString": "yes, Selected: false"
        }, {
          "valueString": "not sure, Selected: false"
        }, {
          "valueString": "no, Selected: true"
        } ]
      } ]
    }
  }, {
    "fullUrl": "urn:uuid:bb6e59a8-d5ee-4582-9b60-afeb9df3106b",
    "resource": {
      "resourceType": "QuestionnaireResponse",
      "id": "bb6e59a8-d5ee-4582-9b60-afeb9df3106b",
      "identifier": {
        "value": "7434927"
      },
      "questionnaire": {
        "reference": "urn:uuid:f473c4c6-aacb-44a4-a720-2644ab5406d9"
      },
      "status": "completed",
      "subject": {
        "reference": "urn:uuid:00aa9966-7781-4a62-8d3e-6c17c8cf3584"
      },
      "context": {
        "reference": "urn:uuid:c74d3feb-6a41-4aa9-a9ef-8164f398da56"
      },
      "authored": "2020-10-30T18:29:05+00:00",
      "item": [ {
        "linkId": "Tx1259",
        "text": "Have you pinched the soft part of the nose for AT LEAST 10 MINUTES without a break?",
        "answer": [ {
          "valueString": "yes"
        } ]
      } ]
    }
  }, {
    "fullUrl": "urn:uuid:f473c4c6-aacb-44a4-a720-2644ab5406d9",
    "resource": {
      "resourceType": "Questionnaire",
      "id": "f473c4c6-aacb-44a4-a720-2644ab5406d9",
      "identifier": [ {
        "value": "7434927"
      } ],
      "version": "2020-10-30T18:29:05.808Z",
      "status": "active",
      "experimental": false,
      "date": "2020-10-30T18:29:05+00:00",
      "publisher": "User ID: 'RB12' User name: 'Rachel Boyer' User skill set: 'T3'",
      "lastReviewDate": "2020-10-30",
      "subjectType": [ "Patient" ],
      "item": [ {
        "linkId": "7434927",
        "prefix": "1500",
        "text": "Have you pinched the soft part of the nose for AT LEAST 10 MINUTES without a break?",
        "type": "choice",
        "required": true,
        "repeats": false,
        "option": [ {
          "valueString": "yes, Selected: true"
        }, {
          "valueString": "not sure, Selected: false"
        }, {
          "valueString": "no, Selected: false"
        } ]
      } ]
    }
  }, {
    "fullUrl": "urn:uuid:b438be5f-c1e3-4215-98ea-fa2721853fba",
    "resource": {
      "resourceType": "QuestionnaireResponse",
      "id": "b438be5f-c1e3-4215-98ea-fa2721853fba",
      "identifier": {
        "value": "7434927"
      },
      "questionnaire": {
        "reference": "urn:uuid:f540ccdf-b0f4-4aed-bcb4-4c4cb71328e8"
      },
      "status": "completed",
      "subject": {
        "reference": "urn:uuid:00aa9966-7781-4a62-8d3e-6c17c8cf3584"
      },
      "context": {
        "reference": "urn:uuid:c74d3feb-6a41-4aa9-a9ef-8164f398da56"
      },
      "authored": "2020-10-30T18:29:05+00:00",
      "item": [ {
        "linkId": "Tx221512",
        "text": "STRING:SDEDFullEDassessmentandmanagementcapability",
        "answer": [ {
          "valueString": "\"ED full ED assessment and management capability\""
        } ]
      } ]
    }
  }, {
    "fullUrl": "urn:uuid:f540ccdf-b0f4-4aed-bcb4-4c4cb71328e8",
    "resource": {
      "resourceType": "Questionnaire",
      "id": "f540ccdf-b0f4-4aed-bcb4-4c4cb71328e8",
      "identifier": [ {
        "value": "7434927"
      } ],
      "version": "2020-10-30T18:29:05.808Z",
      "status": "active",
      "experimental": false,
      "date": "2020-10-30T18:29:05+00:00",
      "publisher": "User ID: 'RB12' User name: 'Rachel Boyer' User skill set: 'T3'",
      "lastReviewDate": "2020-10-30",
      "subjectType": [ "Patient" ],
      "item": [ {
        "linkId": "7434927",
        "prefix": "1700",
        "text": "STRING:SDEDFullEDassessmentandmanagementcapability",
        "type": "choice",
        "required": true,
        "repeats": false,
        "option": [ {
          "valueString": "\"ED full ED assessment and management capability\", Selected: true"
        } ]
      } ]
    }
  }, {
    "fullUrl": "urn:uuid:700524f5-4504-4455-930c-ef9e5eadd21e",
    "resource": {
      "resourceType": "QuestionnaireResponse",
      "id": "700524f5-4504-4455-930c-ef9e5eadd21e",
      "identifier": {
        "value": "7434927"
      },
      "questionnaire": {
        "reference": "urn:uuid:c5e4dfd4-b70d-49e8-915a-7c76ee08728d"
      },
      "status": "completed",
      "subject": {
        "reference": "urn:uuid:00aa9966-7781-4a62-8d3e-6c17c8cf3584"
      },
      "context": {
        "reference": "urn:uuid:c74d3feb-6a41-4aa9-a9ef-8164f398da56"
      },
      "authored": "2020-10-30T18:29:05+00:00"
    }
  }, {
    "fullUrl": "urn:uuid:c5e4dfd4-b70d-49e8-915a-7c76ee08728d",
    "resource": {
      "resourceType": "Questionnaire",
      "id": "c5e4dfd4-b70d-49e8-915a-7c76ee08728d",
      "identifier": [ {
        "value": "7434927"
      } ],
      "version": "2020-10-30T18:29:05.808Z",
      "status": "active",
      "experimental": false,
      "date": "2020-10-30T18:29:05+00:00",
      "publisher": "User ID: 'RB12' User name: 'Rachel Boyer' User skill set: 'T3'",
      "lastReviewDate": "2020-10-30",
      "subjectType": [ "Patient" ]
    }
  }, {
    "fullUrl": "urn:uuid:155eb492-e087-4e17-82e5-c968b9f45fe8",
    "resource": {
      "resourceType": "QuestionnaireResponse",
      "id": "155eb492-e087-4e17-82e5-c968b9f45fe8",
      "identifier": {
        "value": "7434927"
      },
      "questionnaire": {
        "reference": "urn:uuid:c76c2ff6-f8c8-4aef-a017-7849db156d61"
      },
      "status": "completed",
      "subject": {
        "reference": "urn:uuid:00aa9966-7781-4a62-8d3e-6c17c8cf3584"
      },
      "context": {
        "reference": "urn:uuid:c74d3feb-6a41-4aa9-a9ef-8164f398da56"
      },
      "authored": "2020-10-30T18:29:05+00:00"
    }
  }, {
    "fullUrl": "urn:uuid:c76c2ff6-f8c8-4aef-a017-7849db156d61",
    "resource": {
      "resourceType": "Questionnaire",
      "id": "c76c2ff6-f8c8-4aef-a017-7849db156d61",
      "identifier": [ {
        "value": "7434927"
      } ],
      "version": "2020-10-30T18:29:05.808Z",
      "status": "active",
      "experimental": false,
      "date": "2020-10-30T18:29:05+00:00",
      "publisher": "User ID: 'RB12' User name: 'Rachel Boyer' User skill set: 'T3'",
      "lastReviewDate": "2020-10-30",
      "subjectType": [ "Patient" ]
    }
  }, {
    "fullUrl": "urn:uuid:f2c1154a-1038-476c-97fc-40f95fd86ef4",
    "resource": {
      "resourceType": "QuestionnaireResponse",
      "id": "f2c1154a-1038-476c-97fc-40f95fd86ef4",
      "identifier": {
        "value": "7434927"
      },
      "questionnaire": {
        "reference": "urn:uuid:ac0a5db1-6b39-4b4c-88a1-c14db6727332"
      },
      "status": "completed",
      "subject": {
        "reference": "urn:uuid:00aa9966-7781-4a62-8d3e-6c17c8cf3584"
      },
      "context": {
        "reference": "urn:uuid:c74d3feb-6a41-4aa9-a9ef-8164f398da56"
      },
      "authored": "2020-10-30T18:29:05+00:00"
    }
  }, {
    "fullUrl": "urn:uuid:ac0a5db1-6b39-4b4c-88a1-c14db6727332",
    "resource": {
      "resourceType": "Questionnaire",
      "id": "ac0a5db1-6b39-4b4c-88a1-c14db6727332",
      "identifier": [ {
        "value": "7434927"
      } ],
      "version": "2020-10-30T18:29:05.808Z",
      "status": "active",
      "experimental": false,
      "date": "2020-10-30T18:29:05+00:00",
      "publisher": "User ID: 'RB12' User name: 'Rachel Boyer' User skill set: 'T3'",
      "lastReviewDate": "2020-10-30",
      "subjectType": [ "Patient" ]
    }
  }, {
    "fullUrl": "urn:uuid:e226530d-9abc-477b-8cff-66173c7d5d25",
    "resource": {
      "resourceType": "Observation",
      "id": "e226530d-9abc-477b-8cff-66173c7d5d25",
      "status": "final",
      "code": {
        "coding": [ {
          "system": "http://snomed.info/sct",
          "code": "33962009",
          "display": "Presenting complaint"
        } ]
      },
      "subject": {
        "reference": "urn:uuid:00aa9966-7781-4a62-8d3e-6c17c8cf3584"
      },
      "context": {
        "reference": "urn:uuid:c74d3feb-6a41-4aa9-a9ef-8164f398da56"
      }
    }
  }, {
    "fullUrl": "urn:uuid:4b870e5e-a1b6-4f68-a0d1-2f00aed299fc",
    "resource": {
      "resourceType": "PractitionerRole",
      "id": "4b870e5e-a1b6-4f68-a0d1-2f00aed299fc",
      "practitioner": {
        "reference": "urn:uuid:c996010a-3ce9-4d16-8aa9-bf15a83ceb5e"
      },
      "organization": {
        "reference": "urn:uuid:24adc4f4-13ab-49d3-a4e9-30321ee82082"
      },
      "code": [ {
        "coding": [ {
          "system": "2.16.840.1.113883.2.1.3.2.4.17.339",
          "code": "OTHER",
          "display": "Assessed by"
        } ]
      } ]
    }
  }, {
    "fullUrl": "urn:uuid:24adc4f4-13ab-49d3-a4e9-30321ee82082",
    "resource": {
      "resourceType": "Organization",
      "id": "24adc4f4-13ab-49d3-a4e9-30321ee82082",
      "identifier": [ {
        "value": "Y00397"
      } ],
      "name": "Devon 111 (Devon Doctors Group)"
    }
  }, {
    "fullUrl": "urn:uuid:dc59f64a-c6cb-4759-b582-a4e0de3f2efe",
    "resource": {
      "resourceType": "PractitionerRole",
      "id": "dc59f64a-c6cb-4759-b582-a4e0de3f2efe",
      "practitioner": {
        "reference": "urn:uuid:a1334edf-494a-4fcf-b00b-8c3ea227404a"
      },
      "organization": {
        "reference": "urn:uuid:ba323f85-a822-47e3-b1ae-4ad4cbee0687"
      },
      "code": [ {
        "coding": [ {
          "system": "2.16.840.1.113883.2.1.3.2.4.17.196",
          "code": "R0010",
          "display": "Medical Director"
        } ]
      } ]
    }
  }, {
    "fullUrl": "urn:uuid:ba323f85-a822-47e3-b1ae-4ad4cbee0687",
    "resource": {
      "resourceType": "Organization",
      "id": "ba323f85-a822-47e3-b1ae-4ad4cbee0687",
      "identifier": [ {
        "value": "Y00397"
      } ],
      "name": "Devon Doctors Group"
    }
  }, {
    "fullUrl": "urn:uuid:e0da15fc-cb2a-491a-a53d-e3e42c4676c9",
    "resource": {
      "resourceType": "RelatedPerson",
      "id": "e0da15fc-cb2a-491a-a53d-e3e42c4676c9",
      "patient": {
        "reference": "urn:uuid:00aa9966-7781-4a62-8d3e-6c17c8cf3584"
      },
      "relationship": {
        "coding": [ {
          "system": "http://hl7.org/fhir/v2/0131",
          "code": "C",
          "display": "Emergency Contact"
        } ]
      },
      "telecom": [ {
        "system": "phone",
        "value": "tel:01702123456"
      } ]
    }
  }, {
    "fullUrl": "urn:uuid:4b8d702e-762e-4be1-8c8b-cd3bcf9f59b1",
    "resource": {
      "resourceType": "Device",
      "id": "4b8d702e-762e-4be1-8c8b-cd3bcf9f59b1",
      "model": "111 Adaptor",
      "version": "1.0.0"
    }
  }, {
    "fullUrl": "urn:uuid:3c3f6521-3e1b-49f6-9ec1-7765575efee8",
    "resource": {
      "resourceType": "List",
      "id": "3c3f6521-3e1b-49f6-9ec1-7765575efee8",
      "status": "current",
      "mode": "working",
      "title": "111 Report List",
      "code": {
        "coding": [ {
          "system": "http://snomed.info/sct",
          "code": "225390008",
          "display": "Triage"
        } ]
      },
      "subject": {
        "reference": "urn:uuid:00aa9966-7781-4a62-8d3e-6c17c8cf3584"
      },
      "encounter": {
        "reference": "urn:uuid:c74d3feb-6a41-4aa9-a9ef-8164f398da56"
      },
      "date": "2021-10-11T06:41:51+00:00",
      "source": {
        "reference": "urn:uuid:4b8d702e-762e-4be1-8c8b-cd3bcf9f59b1"
      },
      "orderedBy": {
        "coding": [ {
          "system": "http://hl7.org/fhir/list-order",
          "code": "event-date",
          "display": "Sorted by Event Date"
        } ]
      },
      "entry": [ {
        "item": {
          "reference": "urn:uuid:6936b40f-896d-4b97-a83e-31e0b6e645e5"
        }
      }, {
        "item": {
          "reference": "urn:uuid:32704c0d-18b0-4aae-816a-7ed5d7a37b4c"
        }
      }, {
        "item": {
          "reference": "urn:uuid:348fd2a7-6700-4690-a525-ac9185721349"
        }
      }, {
        "item": {
          "reference": "urn:uuid:69961614-79c9-497a-88d7-de63a85aa7f2"
        }
      }, {
        "item": {
          "reference": "urn:uuid:e226530d-9abc-477b-8cff-66173c7d5d25"
        }
      }, {
        "item": {
          "reference": "urn:uuid:00913394-0a1d-4167-bf2a-f5486321bc83"
        }
      }, {
        "item": {
          "reference": "urn:uuid:24adc4f4-13ab-49d3-a4e9-30321ee82082"
        }
      }, {
        "item": {
          "reference": "urn:uuid:e0da15fc-cb2a-491a-a53d-e3e42c4676c9"
        }
      }, {
        "item": {
          "reference": "urn:uuid:c996010a-3ce9-4d16-8aa9-bf15a83ceb5e"
        }
      }, {
        "item": {
          "reference": "urn:uuid:ba323f85-a822-47e3-b1ae-4ad4cbee0687"
        }
      }, {
        "item": {
          "reference": "urn:uuid:a1334edf-494a-4fcf-b00b-8c3ea227404a"
        }
      }, {
        "item": {
          "reference": "urn:uuid:c5e4dfd4-b70d-49e8-915a-7c76ee08728d"
        }
      }, {
        "item": {
          "reference": "urn:uuid:6ce80674-8beb-4ef9-89e1-664baac40d18"
        }
      }, {
        "item": {
          "reference": "urn:uuid:dcb7faad-6f46-4615-8f0c-64b8186d9bae"
        }
      }, {
        "item": {
          "reference": "urn:uuid:cce15938-3a2d-414f-ad54-6cecdc1ed1c0"
        }
      }, {
        "item": {
          "reference": "urn:uuid:bc2600a9-e4ed-475e-9d5e-ca69520e6ea1"
        }
      }, {
        "item": {
          "reference": "urn:uuid:398bd253-cc4e-4cf9-b3e0-fd1501835e0b"
        }
      }, {
        "item": {
          "reference": "urn:uuid:599b2d38-c687-4878-8cca-48b4c25b4316"
        }
      }, {
        "item": {
          "reference": "urn:uuid:306b144d-c65f-412d-b5ca-e922b66c43ac"
        }
      }, {
        "item": {
          "reference": "urn:uuid:3a62921e-aed1-4764-b9ce-54eddbef164d"
        }
      }, {
        "item": {
          "reference": "urn:uuid:373ef3d3-db6c-45e9-9ad8-6dd4506066c2"
        }
      }, {
        "item": {
          "reference": "urn:uuid:f540ccdf-b0f4-4aed-bcb4-4c4cb71328e8"
        }
      }, {
        "item": {
          "reference": "urn:uuid:4f6e1d94-6dce-46f8-817b-f472fe82fae6"
        }
      }, {
        "item": {
          "reference": "urn:uuid:b438be5f-c1e3-4215-98ea-fa2721853fba"
        }
      }, {
        "item": {
          "reference": "urn:uuid:e95b749c-5362-40c0-90a7-3e9836eed735"
        }
      }, {
        "item": {
          "reference": "urn:uuid:56939f6b-47e1-48d2-ad84-1d8f7a407c0b"
        }
      }, {
        "item": {
          "reference": "urn:uuid:42796cbe-e5ba-4c03-a899-852d44f8e747"
        }
      }, {
        "item": {
          "reference": "urn:uuid:ac0a5db1-6b39-4b4c-88a1-c14db6727332"
        }
      }, {
        "item": {
          "reference": "urn:uuid:2f7fe65a-a00f-49c8-bf71-a23a035d32b2"
        }
      }, {
        "item": {
          "reference": "urn:uuid:155eb492-e087-4e17-82e5-c968b9f45fe8"
        }
      }, {
        "item": {
          "reference": "urn:uuid:9c1ef7d8-f09f-48d1-90ce-080d1ed350b1"
        }
      }, {
        "item": {
          "reference": "urn:uuid:e1c7ff10-097a-4311-9ea3-cc9a4958cd5e"
        }
      }, {
        "item": {
          "reference": "urn:uuid:bb6e59a8-d5ee-4582-9b60-afeb9df3106b"
        }
      }, {
        "item": {
          "reference": "urn:uuid:6bf62c0d-8606-4a1c-8fad-2068d610834a"
        }
      }, {
        "item": {
          "reference": "urn:uuid:1f7d4014-4c74-48cf-93bd-3f4038208c6d"
        }
      }, {
        "item": {
          "reference": "urn:uuid:f2713e27-551c-4ff8-9ca9-cf4a7474e269"
        }
      }, {
        "item": {
          "reference": "urn:uuid:48074774-36dd-4ec1-8b89-9b6c2961ab86"
        }
      }, {
        "item": {
          "reference": "urn:uuid:77c02c57-001b-49c5-bb2d-2a20482acf6d"
        }
      }, {
        "item": {
          "reference": "urn:uuid:f2c1154a-1038-476c-97fc-40f95fd86ef4"
        }
      }, {
        "item": {
          "reference": "urn:uuid:f473c4c6-aacb-44a4-a720-2644ab5406d9"
        }
      }, {
        "item": {
          "reference": "urn:uuid:e102aba5-4336-4c81-92dd-82c46ad89081"
        }
      }, {
        "item": {
          "reference": "urn:uuid:5b323ae3-9591-48d7-a5ee-1c148de2cbe5"
        }
      }, {
        "item": {
          "reference": "urn:uuid:ba7932c7-c2e1-44e5-bcc3-206476a3d044"
        }
      }, {
        "item": {
          "reference": "urn:uuid:ce630dd7-3f2b-43a9-949a-a794d765c0d6"
        }
      }, {
        "item": {
          "reference": "urn:uuid:9d1d7788-0d5a-4821-986d-e1f9cebc443a"
        }
      }, {
        "item": {
          "reference": "urn:uuid:43e36d01-1c97-4dc6-9267-529ea1105b6a"
        }
      }, {
        "item": {
          "reference": "urn:uuid:68f95c9e-d0f1-496f-abd8-b993a9f7fdbf"
        }
      }, {
        "item": {
          "reference": "urn:uuid:700524f5-4504-4455-930c-ef9e5eadd21e"
        }
      }, {
        "item": {
          "reference": "urn:uuid:001100cd-b4ae-46b3-ac73-420ba48f8c6d"
        }
      }, {
        "item": {
          "reference": "urn:uuid:6cc99d3b-e85d-4f23-8bc1-a28c164f2ca1"
        }
      }, {
        "item": {
          "reference": "urn:uuid:c76c2ff6-f8c8-4aef-a017-7849db156d61"
        }
      }, {
        "item": {
          "reference": "urn:uuid:5a10ab8f-c8da-4ff1-b1fd-bd65831acf7f"
        }
      }, {
        "item": {
          "reference": "urn:uuid:1485dea8-1ed0-4ac6-97b1-b05d4e20115c"
        }
      }, {
        "item": {
          "reference": "urn:uuid:7ed2bc78-e481-4694-930a-46644eec21ec"
        }
      }, {
        "item": {
          "reference": "urn:uuid:c45a01ef-3f19-4cfb-b957-56d57cfa5bac"
        }
      }, {
        "item": {
          "reference": "urn:uuid:8b40b703-515f-4430-b98f-a32fd3ef6e6c"
        }
      }, {
        "item": {
          "reference": "urn:uuid:3ebfa2d3-e664-46d8-88d8-bc75be8c607d"
        }
      }, {
        "item": {
          "reference": "urn:uuid:140ba96b-52e8-4ae2-9a46-2c08c9d36a88"
        }
      } ]
    }
  } ]
}